# %ECSV 0.9
# ---
# datatype:
# - {name: wavelength, unit: Angstrom, datatype: float64}
# - {name: flux, unit: 1e-16 erg / (Angstrom cm2 s), datatype: float64}
# - {name: uncertainty, unit: 1e-16 erg / (Angstrom cm2 s), datatype: float64}
# - {name: subtracted_sky, unit: 1e-16 erg / (Angstrom cm2 s), datatype: float64}
# meta: !!omap
# - comments: [Wavelength          Flux                Uncertainty          Subtracted Sky, '[Angstrom]   [10^-17 erg/s/cm^2/A] [10^-17
#       erg/s/cm^2/A] [10^-17 erg/s/cm^2/A]']
# schema: astropy-2.0
wavelength flux uncertainty subtracted_sky
3801.89 19.0885 0.0 -0.769857
3802.77 19.086 0.0 -0.772356
3803.65 19.0835 0.0 -0.774857
3804.52 19.081 0.0 -0.777357
3805.4 19.0786 0.0 -0.779756
3806.27 19.0761 0.0 -0.782257
3807.15 19.0736 4.080396 -0.784756
3808.03 15.8625 3.767723 -3.995856
3808.9 20.3288 3.818335 0.470444
3809.78 23.1791 3.643221 3.320744
3810.66 13.7919 3.318178 -6.066457
3811.54 6.51067 3.082956 -13.34769
3812.41 15.2263 3.089851 -4.632056
3813.29 18.8717 3.122455 -0.945049
3814.17 19.3235 3.142061 -0.49325
3815.05 19.7869 3.062259 -0.071457
3815.93 17.0158 3.089674 -2.798222
3816.81 23.0979 3.165277 3.239544
3817.68 17.5859 3.03636 -2.31319
3818.56 23.9276 3.207003 4.025997
3819.44 25.1059 3.154511 5.165726
3820.32 16.6262 3.072157 -3.349598
3821.2 20.2953 3.096881 0.352882
3822.08 22.1128 3.186917 2.188065
3822.96 25.3506 3.325445 5.35111
3823.84 19.3202 3.162836 -0.681202
3824.72 15.7714 3.218695 -4.263811
3825.6 17.43 3.203943 -2.571402
3826.48 12.9662 3.184641 -7.002493
3827.37 14.1262 3.226172 -5.803846
3828.25 11.9414 3.207902 -7.951411
3829.13 23.538 3.389735 3.659344
3830.01 26.2055 3.390855 6.361845
3830.89 17.3702 3.233582 -2.404472
3831.78 24.4377 3.42592 4.696487
3832.66 29.3775 3.468125 9.636288
3833.54 29.8151 3.558552 10.07389
3834.42 33.901 3.598622 14.15979
3835.31 32.8029 3.578325 13.06169
3836.19 25.7437 3.448764 6.002487
3837.07 24.806 3.425833 5.064787
3837.96 24.3854 3.405121 4.644188
3838.84 22.1449 3.320984 2.403687
3839.72 15.7709 3.12136 -3.970313
3840.61 12.5824 3.000974 -7.158813
3841.49 15.4755 3.002719 -4.265713
3842.38 15.5522 2.952101 -4.189013
3843.26 5.83742 2.730152 -13.90379
3844.15 13.3073 2.89339 -6.433913
3845.03 22.3097 3.041031 2.568487
3845.92 24.3263 3.09174 4.585087
3846.8 21.2693 3.070447 1.562403
3847.69 18.0385 2.991492 -1.702713
3848.58 18.4858 2.983122 -1.255413
3849.46 20.6073 2.985926 0.876494
3850.35 19.0207 2.947942 -0.732681
3851.23 17.9048 2.96042 -1.879665
3852.12 20.0453 2.985048 0.229822
3853.01 21.3335 2.989567 1.549814
3853.9 18.9595 2.856455 -0.792955
3854.78 15.2227 2.765969 -4.560986
3855.67 15.8556 2.645836 -3.896854
3856.56 14.6154 2.666126 -5.19701
3857.45 11.4337 2.448812 -8.399589
3858.34 15.2948 2.538006 -4.569742
3859.22 20.1985 2.59123 0.365212
3860.11 17.0781 2.538807 -2.728371
3861.0 16.524 2.531248 -3.309288
3861.89 19.9047 2.682566 0.102182
3862.78 22.1435 2.80255 2.364168
3863.67 21.5733 2.891804 1.810829
3864.56 24.7224 3.017666 4.987652
3865.45 25.466 3.134334 5.728437
3866.34 21.8173 3.03671 2.096367
3867.23 20.673 3.080176 0.976212
3868.12 22.0577 3.002461 2.336765
3869.01 19.2914 2.936114 -0.453194
3869.9 20.1147 2.872105 0.344559
3870.79 21.4992 2.756286 1.70504
3871.68 17.9695 2.682846 -1.849205
3872.58 20.2073 2.643625 0.413139
3873.47 24.8846 2.877331 5.113878
3874.36 18.0768 2.738719 -1.646009
3875.25 21.8934 2.77003 2.193241
3876.14 17.0256 2.581731 -2.650995
3877.04 15.3408 2.505212 -4.359359
3877.93 20.097 2.619318 0.41226
3878.82 21.034 2.553606 1.327837
3879.72 14.1286 2.498345 -5.598433
3880.61 23.9921 2.63167 4.265066
3881.5 20.5305 2.620568 0.803467
3882.4 20.8476 2.59827 1.120567
3883.29 21.5922 2.633102 1.865166
3884.19 18.9717 2.551344 -0.755333
3885.08 21.0146 2.580613 1.287567
3885.97 21.014 2.556166 1.286966
3886.87 19.684 2.498696 -0.043034
3887.76 21.9107 2.540527 2.183666
3888.66 23.2368 2.503374 3.509766
3889.56 21.9842 2.542292 2.257166
3890.45 22.0163 2.482835 2.289267
3891.35 19.4214 2.463435 -0.305634
3892.24 23.3219 2.570592 3.594866
3893.14 21.3411 2.512214 1.614067
3894.04 18.7285 2.500531 -0.976595
3894.93 20.6883 2.509974 0.973759
3895.83 20.0577 2.475316 0.322172
3896.73 14.1634 2.385602 -5.592814
3897.62 16.4888 2.3721 -3.255491
3898.52 22.3958 2.48757 2.646978
3899.42 21.5212 2.46292 1.744595
3900.32 16.729 2.352323 -3.032364
3901.22 20.0228 2.415987 0.242445
3902.11 22.0572 2.460205 2.26841
3903.01 19.5402 2.501822 -0.228876
3903.91 19.8152 2.549544 0.065498
3904.81 19.0611 2.572131 -0.707975
3905.71 16.4859 2.535761 -3.301403
3906.61 17.9454 2.554156 -1.861576
3907.51 17.3677 2.509001 -2.459391
3908.41 19.3374 2.497667 -0.529306
3909.31 13.3914 2.383772 -6.495877
3910.21 15.1628 2.44509 -4.743921
3911.11 22.7521 2.53423 2.824095
3912.01 14.7421 2.499758 -5.166414
3912.91 18.6686 2.597788 -1.218678
3913.81 21.9339 2.664782 2.025387
3914.71 17.2436 2.637962 -2.684404
3915.62 15.9867 2.513706 -3.921814
3916.52 21.8565 2.666771 1.989206
3917.42 22.6348 2.625414 2.786539
3918.32 17.8727 2.514826 -1.955046
3919.22 20.9033 2.530673 1.089287
3920.13 21.3816 2.551901 1.585421
3921.03 19.8424 2.481397 0.03442
3921.93 20.7864 2.491249 0.960947
3922.83 22.1757 2.488941 2.363852
3923.74 19.1185 2.429612 -0.675775
3924.64 19.5711 2.468158 -0.240748
3925.55 22.0586 2.454315 2.246752
3926.45 20.9415 2.505353 1.108719
3927.35 20.0416 2.495015 0.190308
3928.26 24.6287 2.608167 4.759506
3929.16 15.0198 2.463675 -4.867964
3930.07 18.8358 2.464827 -1.054768
3930.97 18.0061 2.447513 -1.906029
3931.88 17.1807 2.380777 -2.709867
3932.78 19.5424 2.366024 -0.367702
3933.69 15.1875 2.196206 -4.722603
3934.59 17.0367 2.177095 -2.853868
3935.5 13.991 2.062391 -5.857202
3936.41 14.7362 2.079097 -5.112001
3937.31 17.0774 2.106206 -2.738823
3938.22 16.8711 2.16721 -2.903767
3939.13 16.6388 2.174581 -3.096081
3940.03 17.3373 2.179104 -2.390736
3940.94 17.6287 2.213636 -2.099335
3941.85 17.0234 2.188441 -2.721249
3942.76 15.9695 2.131044 -3.780884
3943.66 15.0426 2.075457 -4.695786
3944.57 14.6017 2.052981 -5.157568
3945.48 15.1365 2.106449 -4.640565
3946.39 17.1286 2.167347 -2.630669
3947.3 14.8722 2.193805 -4.86948
3948.21 13.1119 2.188991 -6.647367
3949.12 15.3097 2.243247 -4.43198
3950.03 16.3882 2.243286 -3.332687
3950.94 13.955 2.161997 -5.780827
3951.85 16.5899 2.186583 -3.162666
3952.76 18.3169 2.215917 -1.418701
3953.67 20.701 2.283891 0.965399
3954.58 21.3861 2.214933 1.650499
3955.49 15.3039 2.142148 -4.431702
3956.4 19.481 2.175384 -0.254601
3957.31 20.3132 2.206431 0.577599
3958.22 22.4605 2.222359 2.724899
3959.13 20.511 2.550929 0.758434
3960.04 14.6629 2.423974 -5.089665
3960.96 16.3522 2.481221 -3.419813
3961.87 20.8371 2.524705 1.04789
3962.78 17.2996 2.156099 -2.507046
3963.69 21.0309 2.157082 1.205202
3964.61 23.3614 2.186253 3.554754
3965.52 20.3761 2.099692 0.586891
3966.43 21.6192 2.023197 1.849497
3967.35 10.8084 1.850339 -8.978683
3968.26 18.124 1.95814 -1.701696
3969.17 20.9879 2.037222 1.162203
3970.09 18.6923 2.010636 -1.10198
3971.0 19.0737 2.026797 -0.720581
3971.92 19.3072 2.068399 -0.523464
3972.83 18.4678 2.099011 -1.379383
3973.75 19.144 2.129927 -0.703184
3974.66 20.4071 2.181462 0.520502
3975.58 19.2247 2.181379 -0.701218
3976.49 18.888 2.19185 -1.07918
3977.41 25.1248 2.305837 5.116171
3978.32 26.8722 2.327836 6.822895
3979.24 27.7915 2.337393 7.701624
3980.16 25.9742 2.313736 5.842321
3981.07 21.782 2.180161 1.630566
3981.99 18.9391 2.179684 -1.222576
3982.91 19.091 2.111458 -1.11273
3983.82 15.0827 2.088825 -5.1328
3984.74 18.741 2.12457 -1.474501
3985.66 17.1802 2.141337 -3.035299
3986.58 18.3259 2.143107 -1.847549
3987.49 23.3341 2.307955 3.201902
3988.41 19.2068 2.308164 -0.925398
3989.33 23.409 2.45773 3.276802
3990.25 20.374 2.466498 0.238237
3991.17 17.3886 2.450377 -2.747164
3992.09 17.4718 2.513721 -2.705511
3993.01 19.2075 2.558331 -0.992077
3993.93 20.2559 2.538971 0.048889
3994.85 15.7591 2.424821 -4.44791
3995.77 20.2756 2.427578 0.027321
3996.69 18.6023 2.246357 -1.667206
3997.61 16.3653 2.113291 -3.904207
3998.53 19.1609 2.131373 -1.150534
3999.45 18.7607 2.195201 -1.550734
4000.37 19.3239 2.248474 -1.027927
4001.29 17.3191 2.285662 -3.07255
4002.21 22.8714 2.34951 2.440578
4003.13 26.1063 2.418523 5.65082
4004.05 21.602 2.222898 1.142302
4004.98 20.2805 2.084474 -0.224049
4005.9 19.1077 1.977598 -1.396849
4006.82 17.4577 1.939664 -3.06818
4007.74 20.0074 1.988634 -0.531973
4008.67 24.0031 2.109188 3.463726
4009.59 23.8225 2.088106 3.235683
4010.51 19.3628 2.045768 -1.233793
4011.44 19.8815 2.034846 -0.755146
4012.36 21.6996 2.014656 1.052153
4013.28 20.0352 1.996859 -0.656565
4014.21 19.2185 1.976277 -1.457502
4015.13 21.2754 1.931323 0.599398
4016.06 20.0236 1.931359 -0.652403
4016.98 14.1453 1.809831 -6.530703
4017.91 18.1459 1.901481 -2.530102
4018.83 22.0783 1.985405 1.424589
4019.76 23.0261 2.048389 2.327656
4020.68 23.9797 2.053834 3.296391
4021.61 24.9218 2.041118 4.207258
4022.54 21.6511 1.98401 0.917347
4023.46 21.016 1.974381 0.246912
4024.39 20.9608 1.978914 0.149662
4025.32 23.323 2.0046 2.471334
4026.24 24.0426 2.015691 3.190935
4027.17 16.4903 1.906835 -4.344849
4028.1 19.1479 1.960426 -1.723183
4029.03 23.2522 2.041892 2.39982
4029.95 21.8087 2.029245 0.976931
4030.88 18.7642 1.932891 -2.050255
4031.81 18.549 1.903816 -2.274775
4032.74 18.4416 1.8699 -2.372066
4033.67 14.5391 1.764459 -6.294234
4034.6 18.423 1.818293 -2.426788
4035.52 19.3059 1.808871 -1.564039
4036.45 18.7229 1.850688 -2.164879
4037.38 19.5787 1.846159 -1.347553
4038.31 18.1413 1.873014 -2.793228
4039.24 20.2031 1.916201 -0.752821
4040.17 16.7716 1.905187 -4.201614
4041.1 18.3523 1.920313 -2.637522
4042.03 15.5261 1.91263 -5.48398
4042.97 9.68132 1.847296 -11.34453
4043.9 17.6608 1.916821 -3.367765
4044.83 13.2264 1.825757 -7.802166
4045.76 12.8105 1.793039 -8.213771
4046.69 10.3133 1.822607 -10.71097
4047.62 8.23778 1.930801 -12.78649
4048.55 10.328 2.033962 -10.69627
4049.49 12.8333 2.027918 -8.221876
4050.42 15.2855 1.926568 -5.788317
4051.35 14.7917 1.854787 -6.290169
4052.29 16.4731 1.845832 -4.640549
4053.22 17.7259 1.879902 -3.410467
4054.15 17.2218 1.944219 -3.94673
4055.09 18.7745 1.998665 -2.361868
4056.02 17.2984 1.971003 -3.870129
4056.95 17.1626 1.915586 -4.038307
4057.89 17.9369 1.843203 -3.264008
4058.82 17.5645 1.799085 -3.634995
4059.76 17.3293 1.816552 -3.870195
4060.69 20.4382 1.893318 -0.731535
4061.63 21.8516 2.009094 0.666634
4062.56 19.1905 2.021803 -2.02615
4063.5 19.4197 2.091721 -1.828068
4064.43 23.2237 2.13548 1.945757
4065.37 24.0127 2.098355 2.703526
4066.31 17.7016 1.936767 -3.638985
4067.24 18.0095 1.892016 -3.362877
4068.18 22.1239 1.932213 0.722427
4069.12 19.0437 1.900423 -2.386887
4070.05 18.5852 1.895671 -2.8738
4070.99 23.2686 1.995388 1.781208
4071.93 19.5134 1.956876 -1.987831
4072.86 20.5022 1.982045 -0.999031
4073.8 17.4538 1.954255 -4.04743
4074.74 19.0549 1.974654 -2.446331
4075.68 20.2707 1.951689 -1.23053
4076.62 16.7499 1.890964 -4.751329
4077.56 16.5086 1.90021 -4.99263
4078.5 20.0386 1.976918 -1.462629
4079.43 14.7799 1.965035 -6.721331
4080.37 16.1896 1.955738 -5.31163
4081.31 18.1988 1.981294 -3.302431
4082.25 14.3316 1.930318 -7.16963
4083.19 14.0453 1.917557 -7.455931
4084.13 14.3786 1.917053 -7.12263
4085.07 16.4373 2.066879 -5.063931
4086.02 16.9326 2.063558 -4.56863
4086.96 15.9252 1.981197 -5.57603
4087.9 16.3581 1.918217 -5.157928
4088.84 18.5524 1.877531 -2.978104
4089.78 15.5723 1.835604 -5.967554
4090.72 21.4567 1.891417 -0.111322
4091.66 21.446 1.933325 -0.141068
4092.61 19.0405 1.882381 -2.575727
4093.55 19.3367 1.907893 -2.309097
4094.49 16.8856 1.887787 -4.789656
4095.43 22.0861 1.943074 0.410845
4096.38 21.1943 1.907546 -0.480955
4097.32 20.7997 1.856668 -0.875469
4098.26 21.7039 1.860379 -0.000126
4099.21 21.5244 1.870866 -0.208654
4100.15 21.7421 1.938436 -0.021399
4101.1 23.1379 2.023819 1.368654
4102.04 23.9006 2.078019 2.102312
4102.99 22.4731 2.074135 0.703855
4103.93 21.3898 2.023711 -0.408489
4104.88 21.9245 2.009236 0.107428
4105.82 21.3603 1.930239 -0.461384
4106.77 19.726 1.867975 -2.12348
4107.71 21.0267 1.840086 -0.824585
4108.66 20.352 1.853891 -1.499285
4109.6 22.7669 1.839491 0.911366
4110.55 25.354 1.870666 3.483763
4111.5 16.7736 1.707502 -5.096638
4112.44 18.7492 1.708628 -3.14617
4113.39 19.3741 1.733016 -2.53385
4114.34 23.4459 1.780594 1.511984
4115.29 24.2984 1.811799 2.339027
4116.23 20.8084 1.796917 -1.176895
4117.18 24.2288 1.837667 2.257622
4118.13 23.2919 1.842959 1.320723
4119.08 23.6244 1.823828 1.678339
4120.03 21.4056 1.80261 -0.519903
4120.98 19.6566 1.819418 -2.260557
4121.92 21.4711 1.820594 -0.446058
4122.87 23.1116 1.825964 1.169102
4123.82 22.3912 1.785307 0.423582
4124.77 21.8215 1.755827 -0.16691
4125.72 22.9402 1.776897 0.947876
4126.67 22.6239 1.785646 0.640755
4127.62 21.8329 1.817365 -0.174276
4128.57 25.0976 1.882238 3.090425
4129.52 22.2019 1.852093 0.180206
4130.48 22.0104 1.838099 0.000977
4131.43 24.2842 1.843695 2.274776
4132.38 23.8788 1.882662 1.880833
4133.33 21.8385 1.833579 -0.162121
4134.28 24.6279 1.869508 2.616011
4135.23 24.1277 1.845659 2.10437
4136.19 21.985 1.812103 -0.03763
4137.14 22.8601 1.826869 0.825842
4138.09 23.8155 1.868947 1.774195
4139.04 23.6297 1.948145 1.577169
4140.0 26.3276 1.964716 4.27507
4140.95 26.3392 1.886755 4.297894
4141.9 27.2275 1.874646 5.197435
4142.86 23.0827 1.839644 1.041395
4143.81 20.8262 1.793957 -1.226002
4144.77 24.1481 1.820144 2.073469
4145.72 24.1533 1.788359 2.056238
4146.68 23.6512 1.765795 1.554138
4147.63 18.3757 1.690485 -3.721361
4148.59 20.5543 1.749024 -1.566074
4149.54 24.3607 1.866273 2.243429
4150.5 22.3314 1.865776 0.214128
4151.45 20.7357 1.826866 -1.405205
4152.41 20.9754 1.797016 -1.165504
4153.36 22.7336 1.796265 0.592695
4154.32 23.3483 1.804693 1.184307
4155.28 21.744 1.799662 -0.427471
4156.23 21.5025 1.872288 -0.671404
4157.19 25.1918 1.923482 3.040735
4158.15 20.036 1.868748 -2.115065
4159.11 23.7097 1.832839 1.536304
4160.06 22.3723 1.798183 0.175842
4161.02 19.2697 1.785859 -2.950441
4161.98 19.8242 1.815026 -2.372257
4162.94 17.5482 1.747672 -4.648256
4163.9 21.1966 1.802009 -0.999857
4164.86 20.3993 1.798683 -1.809866
4165.82 23.0731 1.79585 0.86766
4166.77 24.4522 1.839781 2.223074
4167.73 21.9075 1.829772 -0.337936
4168.69 24.5673 1.841524 2.321865
4169.65 24.3515 1.842924 2.083281
4170.61 22.2812 1.780753 -0.00939
4171.57 21.2821 1.780386 -1.024326
4172.54 22.4617 1.710504 0.153391
4173.5 23.7359 1.812278 1.406389
4174.46 22.1963 1.843482 -0.133211
4175.42 21.6267 1.83493 -0.71364
4176.38 22.502 1.79081 0.153864
4177.34 21.1081 1.694171 -1.250484
4178.3 18.6813 1.596027 -3.666838
4179.27 18.8854 1.579253 -3.452602
4180.23 21.5506 1.613061 -0.777411
4181.19 19.9843 1.661717 -2.33293
4182.15 22.5862 1.664147 0.268971
4183.12 22.5362 1.768027 0.228651
4184.08 22.0457 1.644465 -0.25107
4185.04 23.8487 1.681932 1.561436
4186.01 23.6968 1.691619 1.420189
4186.97 26.0932 1.701426 3.827412
4187.94 24.2086 1.659164 1.931988
4188.9 23.8349 1.649079 1.536882
4189.86 22.503 1.655988 0.184694
4190.83 19.6587 1.648456 -2.679743
4191.79 22.5808 1.707313 0.221323
4192.76 23.9406 1.746531 1.559778
4193.73 23.9113 1.73311 1.508213
4194.69 20.878 1.672964 -1.539793
4195.66 19.1288 1.595219 -3.31122
4196.62 20.4938 1.616224 -1.94622
4197.59 21.0847 1.605199 -1.35532
4198.56 25.7991 1.617166 3.366491
4199.52 24.6927 1.596235 2.262726
4200.49 22.723 1.56304 0.272989
4201.46 23.0581 1.611453 0.589331
4202.43 24.7328 1.689331 2.26403
4203.39 25.6517 1.722559 3.176689
4204.36 24.2198 1.663445 1.744791
4205.33 25.8896 1.687221 3.392691
4206.3 24.3846 1.601883 1.865656
4207.27 23.5711 1.632008 1.052156
4208.24 25.8226 1.648142 3.303656
4209.2 23.8422 1.659009 1.312172
4210.17 22.3652 1.658129 -0.15415
4211.14 23.3009 1.679894 0.792625
4212.11 25.771 1.700828 3.272987
4213.08 24.43 1.644379 1.943329
4214.05 20.6919 1.564918 -1.7847
4215.02 23.0899 1.576052 0.623222
4215.99 21.9039 1.548964 -0.562248
4216.97 24.7745 1.616239 2.308352
4217.94 22.7637 1.570432 0.293026
4218.91 21.6033 1.605997 -0.864576
4219.88 24.4246 1.649687 1.95417
4220.85 20.6498 1.604777 -1.820219
4221.82 20.9609 1.604917 -1.500036
4222.8 25.0301 1.620829 2.550751
4223.77 23.3113 1.595284 0.831951
4224.74 20.2534 1.513227 -2.225948
4225.71 21.9369 1.536046 -0.562786
4226.69 23.3001 1.569971 0.781721
4227.66 21.507 1.55904 -1.026855
4228.63 24.9775 1.624777 2.423365
4229.61 23.94 1.622898 1.366106
4230.58 21.2766 1.59131 -1.308565
4231.56 22.911 1.596349 0.325834
4232.53 24.3913 1.619627 1.809164
4233.5 23.1664 1.613359 0.584265
4234.48 24.371 1.647648 1.777325
4235.45 24.9569 1.659217 2.34535
4236.43 23.318 1.635291 0.706451
4237.41 20.6353 1.55077 -1.97625
4238.38 19.4138 1.48998 -3.19775
4239.36 22.3683 1.526403 -0.24325
4240.33 22.6849 1.55158 0.085152
4241.31 24.686 1.643133 2.086252
4242.29 24.2139 1.632282 1.595825
4243.26 21.3548 1.663274 -1.281675
4244.24 24.7747 1.664244 2.156626
4245.22 20.1087 1.614801 -2.509375
4246.2 25.2927 1.619245 2.656225
4247.17 24.0504 1.594487 1.432325
4248.15 21.4111 1.542653 -1.188648
4249.13 24.9492 1.613892 2.367863
4250.11 23.3581 1.607815 0.758352
4251.09 21.3602 1.55689 -1.257378
4252.07 19.8342 1.50206 -2.783379
4253.05 21.4763 1.549024 -1.136549
4254.02 21.9731 1.548732 -0.641419
4255.0 21.1336 1.577955 -1.474737
4255.98 25.2517 1.609344 2.633717
4256.96 21.9514 1.595207 -0.685263
4257.94 25.0115 1.600289 2.374836
4258.93 25.5051 1.668608 2.849815
4259.91 22.6286 1.609709 -0.026686
4260.89 21.9605 1.620963 -0.676027
4261.87 23.3135 1.624724 0.676971
4262.85 20.9486 1.581861 -1.668438
4263.83 21.6147 1.582239 -0.983284
4264.81 20.5834 1.517933 -2.014584
4265.8 20.643 1.547456 -1.940287
4266.78 23.4541 1.565415 0.883467
4267.76 22.3884 1.5816 -0.161913
4268.74 21.6299 1.60475 -0.900024
4269.73 22.1547 1.565722 -0.375225
4270.71 23.148 1.631215 0.618076
4271.69 23.2826 1.551471 0.732288
4272.68 22.1533 1.525358 -0.397013
4273.66 20.9632 1.479852 -1.587112
4274.64 20.9684 1.481121 -1.581913
4275.63 22.1253 1.499122 -0.440851
4276.61 23.0651 1.521474 0.498949
4277.6 22.5611 1.50194 -0.003315
4278.58 22.0008 1.519069 -0.58221
4279.57 23.7095 1.538656 1.108135
4280.55 22.3796 1.573951 -0.227941
4281.54 24.9505 1.663557 2.361313
4282.53 21.4593 1.642335 -1.129889
4283.51 19.3654 1.605956 -3.223787
4284.5 24.2672 1.645567 1.69681
4285.49 23.7307 1.610279 1.160309
4286.47 23.4581 1.555082 0.894011
4287.46 22.8357 1.533401 0.271299
4288.45 23.1291 1.528579 0.564701
4289.43 22.8562 1.520289 0.281767
4290.42 20.8097 1.496879 -1.774092
4291.41 20.1575 1.510238 -2.436113
4292.4 24.3942 1.589331 1.810408
4293.39 19.2898 1.571995 -3.284632
4294.38 19.6173 1.486033 -2.9564
4295.36 23.1062 1.552137 0.541843
4296.35 21.9855 1.492562 -0.584883
4297.34 22.1952 1.488959 -0.385344
4298.33 24.2562 1.535553 1.673128
4299.32 23.133 1.555662 0.560253
4300.31 24.7669 1.617545 2.186457
4301.3 24.6981 1.616353 2.106621
4302.29 21.094 1.561422 -1.50972
4303.28 23.0431 1.535316 0.428747
4304.27 21.1359 1.493085 -1.48838
4305.27 22.24 1.485491 -0.394747
4306.26 23.6616 1.505717 1.016605
4307.25 22.4868 1.507531 -0.159502
4308.24 21.1224 1.513618 -1.515392
4309.23 23.7529 1.55195 1.093422
4310.23 22.8177 1.54344 0.169254
4311.22 22.5817 1.536251 -0.04557
4312.21 21.9232 1.524282 -0.704069
4313.2 23.7448 1.58256 1.117531
4314.2 26.5088 1.676762 3.868126
4315.19 22.7456 1.695632 0.083242
4316.18 25.0951 1.7054 2.420471
4317.18 21.4739 1.615876 -1.200729
4318.17 20.5203 1.537821 -2.154329
4319.17 21.4877 1.507622 -1.202238
4320.16 20.1878 1.466522 -2.52318
4321.16 20.3926 1.474573 -2.31838
4322.15 19.8387 1.462578 -2.851238
4323.15 19.7749 1.448254 -2.893295
4324.14 20.1041 1.426596 -2.551435
4325.14 20.9365 1.430103 -1.720217
4326.13 23.1945 1.472891 0.537783
4327.13 26.5601 1.539083 3.909338
4328.13 25.3549 1.550071 2.725441
4329.12 23.6143 1.542831 0.98484
4330.12 25.1927 1.564713 2.56324
4331.12 25.1869 1.525591 2.568897
4332.12 22.6733 1.469781 0.065832
4333.11 24.6746 1.471873 2.063246
4334.11 18.7186 1.384639 -3.892756
4335.11 20.8168 1.406062 -1.794556
4336.11 22.6802 1.450896 0.068846
4337.11 22.9424 1.468179 0.331045
4338.1 23.2055 1.454597 0.594145
4339.1 19.813 1.431945 -2.798355
4340.1 22.2788 1.457754 -0.332556
4341.1 23.8885 1.491612 1.277145
4342.1 24.4044 1.55521 1.793045
4343.1 23.1421 1.520305 0.530745
4344.1 21.6096 1.54101 -1.001755
4345.1 23.7871 1.551087 1.175745
4346.1 21.7369 1.48889 -0.874455
4347.1 20.0029 1.438076 -2.608456
4348.1 18.5923 1.396591 -4.019054
4349.11 18.5289 1.418775 -4.09498
4350.11 20.3081 1.480366 -2.315781
4351.11 21.6 1.507358 -1.02388
4352.11 22.525 1.524029 -0.121693
4353.11 22.7014 1.539181 0.051634
4354.12 22.4028 1.54287 -0.224155
4355.12 22.6007 1.473857 -0.026255
4356.12 22.4487 1.489395 -0.178255
4357.12 20.8738 1.503188 -1.753155
4358.13 24.9771 1.680399 2.327333
4359.13 15.8997 2.152534 -6.772348
4360.14 19.2052 2.224684 -3.484541
4361.14 26.5758 1.902575 3.875637
4362.14 22.8056 1.733649 0.128221
4363.15 23.6579 1.635345 0.957737
4364.15 25.6271 1.589319 2.926937
4365.16 22.7113 1.511949 -0.011763
4366.16 21.7316 1.490541 -0.991463
4367.17 22.9157 1.490974 0.192638
4368.17 23.6974 1.495637 0.952316
4369.18 25.1542 1.510655 2.409117
4370.19 22.0572 1.45643 -0.687883
4371.19 21.9046 1.439966 -0.865162
4372.2 21.7805 1.425359 -1.01119
4373.21 20.5779 1.428872 -2.234991
4374.21 21.1006 1.460618 -1.732168
4375.22 24.475 1.509249 1.662109
4376.23 23.262 1.495756 0.429232
4377.24 21.4226 1.437669 -1.410168
4378.24 23.4789 1.478507 0.650122
4379.25 23.9978 1.47032 1.175097
4380.26 20.3742 1.417741 -2.448503
4381.27 20.9592 1.424565 -1.883383
4382.28 21.7791 1.445461 -1.083353
4383.29 25.3137 1.50612 2.431669
4384.3 23.8505 1.463373 0.948631
4385.31 21.1146 1.393951 -1.784351
4386.32 22.2383 1.413715 -0.662222
4387.33 22.6311 1.445896 -0.269423
4388.34 26.7996 1.509175 3.896297
4389.35 24.1792 1.490707 1.295706
4390.36 23.3693 1.444401 0.485807
4391.37 23.764 1.443141 0.880506
4392.38 21.0138 1.381084 -1.869694
4393.39 19.772 1.365665 -3.111494
4394.4 21.4769 1.401593 -1.39156
4395.42 20.354 1.397291 -2.515505
4396.43 19.3943 1.380973 -3.475204
4397.44 20.9753 1.391091 -1.894209
4398.45 22.4499 1.395636 -0.419609
4399.47 20.2144 1.393277 -2.674944
4400.48 23.071 1.433053 0.172432
4401.49 26.1867 1.515994 3.292194
4402.51 24.6638 1.50833 1.769293
4403.52 24.0125 1.545835 1.118847
4404.53 26.4804 1.561182 3.577726
4405.55 23.4073 1.509976 0.511295
4406.56 22.8491 1.469895 -0.067902
4407.58 22.2446 1.454749 -0.693926
4408.59 23.0551 1.450505 0.116573
4409.61 23.9511 1.46118 0.992762
4410.62 23.0424 1.46123 0.06254
4411.64 21.5784 1.424052 -1.40901
4412.66 19.4063 1.391169 -3.58111
4413.67 20.6606 1.421597 -2.326227
4414.69 19.8561 1.451003 -3.116592
4415.7 19.6173 1.451341 -3.332769
4416.72 22.0727 1.45718 -0.855446
4417.74 20.892 1.425112 -2.05002
4418.76 23.5308 1.429057 0.602263
4419.77 24.4165 1.463016 1.466114
4420.79 22.8295 1.408676 -0.143511
4421.81 21.9374 1.543583 -1.03561
4422.83 22.2575 1.486299 -0.736898
4423.85 19.9711 1.445075 -3.023298
4424.86 19.1054 1.40885 -3.905949
4425.88 18.4227 1.355732 -4.588648
4426.9 20.7149 1.376596 -2.319107
4427.92 21.5174 1.373297 -1.497032
4428.94 19.1078 1.348742 -3.884115
4429.96 21.2137 1.358043 -1.797018
4430.98 19.9273 1.371516 -3.083418
4432.0 16.1001 1.346334 -6.919237
4433.02 16.5588 1.351758 -6.48311
4434.04 19.9236 1.39391 -3.141611
4435.07 21.2533 1.400923 -1.829695
4436.09 21.4477 1.355179 -1.647322
4437.11 24.7881 1.430794 1.670044
4438.13 22.6326 1.435237 -0.508863
4439.15 23.1437 1.486001 -0.013144
4440.17 24.4364 1.48038 1.291948
4441.2 23.2031 1.46493 0.058649
4442.22 26.1957 1.479269 3.050131
4443.24 25.1803 1.459125 2.036156
4444.27 24.9804 1.446314 1.836256
4445.29 24.4037 1.40054 1.235283
4446.31 22.8435 1.361964 -0.324917
4447.34 21.1828 1.352255 -2.007135
4448.36 19.8339 1.328712 -3.377956
4449.39 19.581 1.350338 -3.627348
4450.41 20.2027 1.370573 -2.993225
4451.43 23.1113 1.396852 -0.109451
4452.46 24.448 1.42115 1.204428
4453.49 22.8611 1.379921 -0.382473
4454.51 24.3749 1.404246 1.131329
4455.54 23.4843 1.402064 0.22649
4456.56 25.3909 1.424838 2.133356
4457.59 26.0586 1.443043 2.789474
4458.62 25.4059 1.440798 2.136774
4459.64 26.3391 1.432675 3.047049
4460.67 27.4753 1.431115 4.160007
4461.7 23.9758 1.396745 0.638491
4462.72 27.2107 1.71784 3.851038
4463.75 28.0141 1.801445 4.634602
4464.78 27.3308 1.82964 3.931629
4465.81 29.7077 1.53106 6.288855
4466.84 28.6308 1.487412 5.197235
4467.86 24.3466 1.412924 0.891548
4468.89 22.3481 1.360028 -1.106951
4469.92 22.3147 1.344606 -1.149096
4470.95 23.5687 1.387272 0.104906
4471.98 25.1801 1.388115 1.727999
4473.01 25.3221 1.399753 1.869999
4474.04 26.4719 1.392799 3.035664
4475.07 25.7952 1.411322 2.358963
4476.1 24.0174 1.359972 0.581163
4477.13 23.0432 1.376712 -0.393038
4478.16 23.1394 1.406878 -0.293203
4479.2 23.3107 1.459583 -0.10256
4480.23 26.82 1.550125 3.395672
4481.26 24.6295 1.537654 1.186245
4482.29 24.1556 1.554531 0.691942
4483.32 25.8882 1.540916 2.408195
4484.36 25.3856 1.513369 1.921904
4485.39 24.7898 1.484816 1.310198
4486.42 28.4234 1.523774 4.92186
4487.45 27.6086 1.516651 4.116236
4488.49 26.7831 1.492348 3.290735
4489.52 26.8365 1.47556 3.321491
4490.55 25.8762 1.422426 2.338352
4491.59 25.9658 1.406183 2.427952
4492.62 27.1153 1.431719 3.573074
4493.66 26.1279 1.440236 2.562025
4494.69 25.3453 1.425199 1.752913
4495.73 23.7712 1.397252 0.152189
4496.76 21.9499 1.349437 -1.669111
4497.8 25.5285 1.405559 1.909489
4498.83 26.9919 1.421302 3.367262
4499.87 23.031 1.370245 -0.6017
4500.91 22.2849 1.371316 -1.375063
4501.94 23.7649 1.369123 0.077686
4502.98 23.7303 1.364493 0.014236
4504.02 26.1033 1.397485 2.356842
4505.05 24.9654 1.389429 1.188454
4506.09 23.1424 1.398647 -0.665321
4507.13 22.5143 1.382193 -1.323195
4508.17 22.339 1.42885 -1.498493
4509.21 20.9036 1.366488 -2.933893
4510.24 18.2689 1.546715 -5.581036
4511.28 18.0732 1.489903 -5.776735
4512.32 17.9608 1.482403 -5.922216
4513.36 19.3748 1.563952 -4.542898
4514.4 21.6555 1.319815 -2.301029
4515.44 22.604 1.36199 -1.390329
4516.48 22.4488 1.370218 -1.569492
4517.52 24.2259 1.375432 0.195503
4518.56 23.6957 1.39543 -0.334698
4519.6 22.8281 1.383865 -1.238825
4520.64 23.0955 1.411927 -1.007462
4521.68 23.5785 1.433088 -0.561359
4522.72 23.1706 1.402962 -1.006485
4523.76 23.721 1.341238 -0.494082
4524.81 23.6892 1.334044 -0.546724
4525.85 24.5651 1.325405 0.329176
4526.89 24.7769 1.34793 0.522799
4527.93 23.3266 1.319331 -0.947678
4528.98 23.6606 1.327491 -0.632875
4530.02 23.4157 1.337256 -0.897152
4531.06 22.3619 1.333913 -1.969334
4532.11 21.4789 1.353786 -2.870962
4533.15 21.0562 1.375178 -3.313648
4534.19 21.4399 1.389446 -2.929949
4535.24 23.0555 1.365398 -1.333256
4536.28 22.5172 1.326663 -1.892948
4537.33 23.54 1.334828 -0.890533
4538.37 25.1848 1.388945 0.734406
4539.42 24.8543 1.434086 0.382696
4540.46 24.1248 1.443219 -0.389015
4541.51 27.0666 1.466784 2.538122
4542.55 21.6447 1.33618 -2.927032
4543.6 24.3932 1.391514 -0.20351
4544.65 22.7209 1.347988 -1.922173
4545.69 21.4264 1.467041 -3.216673
4546.74 26.7951 1.541044 2.143414
4547.79 22.9369 1.486188 -1.72921
4548.83 26.335 1.417362 1.638086
4549.88 25.3647 1.363175 0.638905
4550.93 23.3261 1.315814 -1.452755
4551.98 23.1424 1.315677 -1.672998
4553.02 23.7703 1.35041 -1.089668
4554.07 24.3204 1.379969 -0.578636
4555.12 23.3111 1.35343 -1.593731
4556.17 25.976 1.381185 1.064919
4557.22 25.728 1.39087 0.824026
4558.27 23.6023 1.371878 -1.311567
4559.32 23.9772 1.37175 -0.936668
4560.37 23.9875 1.367282 -0.904888
4561.42 24.8184 1.374818 -0.065269
4562.47 23.5601 1.343972 -1.304701
4563.52 21.9928 1.294954 -2.872025
4564.57 22.2597 1.325253 -2.62528
4565.62 24.8804 1.408642 -0.022917
4566.67 27.66 1.474301 2.738321
4567.73 24.8215 1.450757 -0.121147
4568.78 24.9084 1.415939 -0.034248
4569.83 25.0893 1.385523 0.126745
4570.88 23.272 1.368178 -1.71179
4571.93 22.6712 1.368833 -2.331673
4572.99 26.4445 1.443428 1.422348
4574.04 25.5076 1.409645 0.484177
4575.09 26.676 1.48617 1.652576
4576.15 27.2575 1.396813 2.234076
4577.2 26.2616 1.408487 1.198479
4578.26 24.991 1.381665 -0.111458
4579.31 23.5997 1.367736 -1.520161
4580.36 26.705 1.43611 1.585138
4581.42 25.7741 1.410797 0.662165
4582.47 23.3944 1.330887 -1.756441
4583.53 22.9646 1.310135 -2.186241
4584.58 23.4178 1.320715 -1.745054
4585.64 21.8013 1.298474 -3.349522
4586.7 22.9372 1.30389 -2.213621
4587.75 22.5255 1.284101 -2.625322
4588.81 22.9717 1.336176 -2.179121
4589.87 23.563 1.347288 -1.587822
4590.92 22.6941 1.31844 -2.456722
4591.98 23.465 1.299797 -1.685822
4593.04 24.993 1.297461 -0.157822
4594.1 23.7162 1.291108 -1.447691
4595.15 23.247 1.304998 -1.956583
4596.21 25.3202 1.400151 0.107876
4597.27 26.3191 1.449546 1.146496
4598.33 22.8632 1.418631 -2.349125
4599.39 27.2679 1.41522 2.016756
4600.45 26.6057 1.374724 1.317314
4601.51 26.4876 1.336264 1.162937
4602.57 27.7542 1.344918 2.437429
4603.63 27.262 1.363243 1.907099
4604.69 28.0177 1.411308 2.655518
4605.75 26.5133 1.436593 1.151117
4606.81 27.435 1.427815 2.047918
4607.87 26.0569 1.391324 0.638319
4608.93 23.5775 1.293598 -1.872847
4609.99 24.2011 1.326958 -1.281746
4611.05 25.719 1.338893 0.199852
4612.11 27.0817 1.37562 1.526197
4613.18 26.6419 1.363245 1.05332
4614.24 26.4103 1.336815 0.817801
4615.3 27.2778 1.366625 1.661633
4616.36 27.5883 1.397497 1.938833
4617.43 25.6194 1.384073 -0.064236
4618.49 25.492 1.347633 -0.197958
4619.55 25.8542 1.341619 0.130215
4620.62 26.2108 1.319281 0.486814
4621.68 26.7072 1.32688 0.949383
4622.75 26.7935 1.333983 1.002626
4623.81 25.2564 1.328522 -0.534475
4624.88 23.908 1.315932 -1.913452
4625.94 23.428 1.309258 -2.423063
4627.01 25.5742 1.331327 -0.276863
4628.07 27.739 1.356232 1.858154
4629.14 27.0812 1.320798 1.170938
4630.2 26.3125 1.310093 0.397053
4631.27 25.9968 1.333638 0.081352
4632.34 26.8336 1.323771 0.917021
4633.4 27.1006 1.339501 1.157356
4634.47 26.7211 1.331677 0.750727
4635.54 27.2524 1.356491 1.282026
4636.6 29.0585 1.388078 3.088127
4637.67 29.0034 1.403721 3.033028
4638.74 27.4916 1.384561 1.495483
4639.81 26.9246 1.363399 0.901999
4640.88 27.4797 1.357507 1.459103
4641.95 27.7193 1.354431 1.672337
4643.01 27.3021 1.358379 1.250319
4644.08 27.3602 1.348639 1.30842
4645.15 25.9073 1.336236 -0.171557
4646.22 25.8694 1.305893 -0.209457
4647.29 26.9134 1.306373 0.808235
4648.36 26.7292 1.284624 0.599796
4649.43 26.3051 1.295766 0.158567
4650.5 27.009 1.316631 0.837389
4651.57 26.2573 1.330705 0.085688
4652.65 25.7764 1.33654 -0.421581
4653.72 25.5817 1.339892 -0.641146
4654.79 24.8625 1.347629 -1.386045
4655.86 25.2235 1.370932 -1.050596
4656.93 25.9275 1.372207 -0.371374
4658.01 25.394 1.34257 -0.929245
4659.08 24.6566 1.316446 -1.666643
4660.15 24.2424 1.290568 -2.105595
4661.22 24.1191 1.298158 -2.253489
4662.3 24.4752 1.292654 -1.92222
4663.37 23.4761 1.319699 -2.945496
4664.45 24.5611 1.300939 -1.869745
4665.52 23.969 1.28693 -2.486589
4666.59 24.8657 1.296564 -1.594393
4667.67 28.74 1.33844 2.305798
4668.74 25.8378 1.303142 -0.612747
4669.82 26.7385 1.326464 0.261862
4670.89 27.6156 1.358057 1.133005
4671.97 27.0318 1.354519 0.522324
4673.05 26.5466 1.361655 0.010151
4674.12 27.0178 1.351688 0.45553
4675.2 26.3448 1.343666 -0.217468
4676.27 25.0026 1.31409 -1.585524
4677.35 25.8684 1.338611 -0.74293
4678.43 26.7535 1.361857 0.118713
4679.51 25.9838 1.338471 -0.675501
4680.58 24.9992 1.305198 -1.683657
4681.66 25.8549 1.320552 -0.827957
4682.74 23.2245 1.300253 -3.480568
4683.82 26.9607 1.397446 0.25563
4684.9 28.7489 1.396015 2.043831
4685.98 26.9409 1.336626 0.213314
4687.05 26.7682 1.304493 0.017326
4688.13 27.5066 1.315319 0.75417
4689.21 27.778 1.34196 1.034342
4690.29 28.4378 1.381933 1.678375
4691.37 28.0985 1.37109 1.362957
4692.45 27.6621 1.380669 0.950113
4693.53 28.8594 1.389681 2.1724
4694.62 29.7269 1.380877 3.048151
4695.7 26.2056 1.308691 -0.447145
4696.78 24.0013 1.257415 -2.677448
4697.86 26.5402 1.288212 -0.164028
4698.94 28.3582 1.319898 1.628967
4700.02 26.2231 1.293946 -0.481152
4701.11 28.3947 1.311522 1.67655
4702.19 26.696 1.30478 -0.044083
4703.27 24.926 1.266976 -1.78702
4704.35 24.4946 1.278942 -2.21842
4705.44 25.6982 1.274707 -1.041882
4706.52 27.7008 1.324185 0.933222
4707.6 28.0551 1.336694 1.266041
4708.69 28.2629 1.361117 1.464071
4709.77 27.4838 1.334956 0.673346
4710.86 26.1042 1.310936 -0.734735
4711.94 25.0534 1.249322 -1.785536
4713.03 25.8018 1.276914 -1.037136
4714.11 28.9488 1.315501 2.109863
4715.2 28.1239 1.312448 1.308256
4716.28 25.2331 1.280654 -1.582317
4717.37 24.1923 1.27767 -2.65333
4718.46 26.3162 1.317292 -0.513416
4719.54 28.018 1.328472 1.189838
4720.63 25.1222 1.31747 -1.691908
4721.72 30.6529 1.395048 3.835526
4722.8 26.3807 1.342244 -0.402761
4723.89 24.7091 1.33226 -2.07436
4724.98 27.1341 1.348757 0.349281
4726.07 25.5121 1.33083 -1.272718
4727.16 25.1035 1.305059 -1.681318
4728.25 25.4065 1.298754 -1.380079
4729.33 26.6443 1.325559 -0.142603
4730.42 26.5755 1.328846 -0.215866
4731.51 25.1218 1.32303 -1.682861
4732.6 25.2472 1.329386 -1.581776
4733.69 28.6028 1.386806 1.7358
4734.78 26.8409 1.671106 -0.041838
4735.87 26.4134 1.686381 -0.507736
4736.96 27.7133 1.393632 0.754686
4738.05 27.5913 1.386748 0.594238
4739.15 25.3129 1.364029 -1.722507
4740.24 25.3805 1.363522 -1.692905
4741.33 28.368 1.407654 1.260479
4742.42 28.5811 1.446292 1.439093
4743.51 28.9986 1.445037 1.856592
4744.6 28.0839 1.406624 0.908064
4745.7 24.96 1.318698 -2.248669
4746.79 27.5726 1.354077 0.362206
4747.88 27.1646 1.674624 -0.076838
4748.98 27.967 1.740297 0.694471
4750.07 29.5017 1.549131 2.260262
4751.16 29.8063 1.412205 2.533772
4752.26 28.4543 1.391123 1.181772
4753.35 27.0825 1.346238 -0.162088
4754.45 27.4969 1.35677 0.263143
4755.54 28.0682 1.343935 0.834442
4756.64 27.5978 1.351691 0.341555
4757.73 28.4422 1.341599 1.185955
4758.83 29.9089 1.352622 2.652655
4759.92 25.6206 1.305096 -1.632124
4761.02 29.8896 1.348558 2.636877
4762.12 29.4327 1.352053 2.179976
4763.21 27.5771 1.327761 0.324377
4764.31 28.9378 1.330579 1.685076
4765.41 30.125 1.338902 2.884703
4766.5 25.5861 1.280674 -1.649746
4767.6 29.04 1.297157 1.773151
4768.7 28.7539 1.344847 1.478294
4769.8 29.1112 1.338119 1.875526
4770.9 28.8384 1.35045 1.641375
4772.0 25.4427 1.273118 -1.754326
4773.09 28.1978 1.292922 1.030849
4774.19 25.7227 1.258919 -1.406515
4775.29 25.3788 1.245407 -1.79118
4776.39 27.5066 1.297691 0.299278
4777.49 28.0371 1.311522 0.829779
4778.59 26.241 1.288253 -0.92556
4779.69 27.0079 1.276656 -0.199421
4780.79 24.2003 1.209705 -2.966259
4781.89 24.3811 1.245262 -2.778978
4783.0 24.545 1.249328 -2.656639
4784.1 23.5564 1.236167 -3.645239
4785.2 24.833 1.238696 -2.327509
4786.3 29.2452 1.278873 2.12776
4787.4 27.8135 1.253705 0.73674
4788.51 26.0289 1.248485 -1.010948
4789.61 27.1772 1.277225 0.137352
4790.71 27.7293 1.301667 0.647699
4791.81 25.6735 1.278449 -1.366348
4792.92 27.7149 1.29802 0.71763
4794.02 28.2284 1.33024 1.231131
4795.13 27.014 1.309209 0.016731
4796.23 27.0296 1.289712 0.030239
4797.33 28.6615 1.281235 1.703844
4798.44 28.4058 1.287584 1.436487
4799.54 23.8312 1.208222 -3.138113
4800.65 26.0627 1.236307 -0.931482
4801.76 25.178 1.209926 -1.791332
4802.86 25.8791 1.242971 -1.131071
4803.97 27.483 1.219969 0.472828
4805.07 26.0279 1.22278 -1.007015
4806.18 27.0526 1.231466 -0.016067
4807.29 25.8571 1.23349 -1.207052
4808.39 28.0266 1.284016 0.921768
4809.5 28.3458 1.278235 1.281649
4810.61 26.9694 1.283578 -0.121763
4811.72 28.0919 1.28393 1.000736
4812.82 29.0354 1.29345 1.986856
4813.93 29.449 1.282215 2.442144
4815.04 27.371 1.243673 0.349224
4816.15 26.3883 1.233475 -0.660086
4817.26 27.6242 1.254533 0.617449
4818.37 28.9277 1.282801 1.964979
4819.48 29.1857 1.299209 2.267061
4820.59 29.2826 1.313097 2.363962
4821.7 28.8644 1.310658 1.977903
4822.81 28.9081 1.363838 2.008938
4823.92 28.7255 1.343953 1.868286
4825.03 27.9285 1.289102 1.113237
4826.14 28.6651 1.269722 1.89147
4827.25 26.5312 1.237937 -0.21126
4828.36 29.0799 1.27377 2.380445
4829.48 28.8026 1.2618 2.138973
4830.59 26.7495 1.237624 0.126591
4831.7 27.8576 1.261591 1.276579
4832.81 25.2025 1.249716 -1.350044
4833.93 28.6328 1.284161 2.080256
4835.04 26.2098 1.248298 -0.304791
4836.15 24.6986 1.188077 -1.778532
4837.27 25.4795 1.234019 -0.960421
4838.38 23.7265 1.17302 -2.673967
4839.49 23.07 1.200984 -3.337969
4840.61 24.5832 1.252497 -1.824768
4841.72 26.5081 1.280864 0.120043
4842.84 25.8274 1.243976 -0.528345
4843.95 23.7395 1.171325 -2.648558
4845.07 23.9372 1.174282 -2.450857
4846.19 26.4643 1.205179 0.040678
4847.3 26.8029 1.26938 0.342625
4848.42 28.0387 1.3015 1.589849
4849.53 28.4004 1.260087 1.986778
4850.65 26.4445 1.216586 0.039463
4851.77 24.9602 1.2036 -1.444838
4852.89 28.1164 1.245318 1.6758
4854.0 26.7298 1.251285 0.2892
4855.12 27.7474 1.314608 1.306801
4856.24 27.6231 1.311457 1.176334
4857.36 25.2331 1.273258 -1.204887
4858.48 25.5692 1.247798 -0.868788
4859.59 30.3248 1.29023 3.885536
4860.71 25.5489 1.193464 -0.881374
4861.83 25.0504 1.193949 -1.379875
4862.95 26.3823 1.22235 -0.047976
4864.07 25.4229 1.20188 -1.007376
4865.19 24.0244 1.188205 -2.398645
4866.31 25.1266 1.216903 -1.268497
4867.43 24.0147 1.246717 -2.352612
4868.55 25.4747 1.278673 -0.89261
4869.68 25.9034 1.26881 -0.470396
4870.8 25.1778 1.234727 -1.224072
4871.92 25.6063 1.203409 -0.79557
4873.04 24.4003 1.195121 -1.997944
4874.16 26.449 1.223416 0.022913
4875.28 25.8098 1.214295 -0.616287
4876.41 26.7263 1.24718 0.300213
4877.53 27.1347 1.264237 0.736458
4878.65 24.4956 1.247614 -1.874319
4879.78 28.3758 1.279647 2.00588
4880.9 26.3642 1.26324 0.021891
4882.03 27.1621 1.262553 0.81979
4883.15 27.7058 1.275009 1.363489
4884.27 25.77 1.325176 -0.554485
4885.4 24.953 1.33425 -1.343351
4886.52 27.7127 1.306896 1.437046
4887.65 26.2099 1.301687 -0.065754
4888.77 26.0182 1.271759 -0.257454
4889.9 26.3589 1.258109 0.083246
4891.03 26.8151 1.243058 0.539446
4892.15 27.1599 1.248539 0.884247
4893.28 24.3341 1.207032 -1.941553
4894.41 26.3739 1.240544 0.123358
4895.53 25.5853 1.221437 -0.656948
4896.66 26.6388 1.250188 0.426207
4897.79 27.8948 1.23841 1.71014
4898.92 25.0171 1.230914 -1.195494
4900.04 25.8084 1.218548 -0.404194
4901.17 25.6395 1.217722 -0.557095
4902.3 23.5173 1.216912 -2.71216
4903.43 22.8951 1.234538 -3.33436
4904.56 24.1892 1.266416 -2.069189
4905.69 25.3472 1.291999 -0.911188
4906.82 26.3658 1.301683 0.133703
4907.95 25.5095 1.267488 -0.731569
4909.08 26.0092 1.255891 -0.259808
4910.21 25.9427 1.238501 -0.356571
4911.34 25.1451 1.226845 -1.131493
4912.47 26.1452 1.242818 -0.131391
4913.6 28.6499 1.268415 2.373308
4914.73 26.4318 1.242795 0.146746
4915.87 27.3974 1.249343 1.08046
4917.0 27.7783 1.24235 1.462524
4918.13 27.0962 1.235279 0.780426
4919.26 28.1451 1.256512 1.860044
4920.4 26.6994 1.200903 0.383625
4921.53 23.6953 1.162083 -2.620476
4922.66 25.9357 1.164793 -0.380076
4923.8 27.5418 1.21715 1.197027
4924.93 25.187 1.155128 -1.186676
4926.06 23.2137 1.143627 -3.173765
4927.2 26.1847 1.184042 -0.23234
4928.33 26.7324 1.202742 0.285307
4929.47 27.7885 1.222745 1.326075
4930.6 26.5782 1.212781 0.104246
4931.74 25.0689 1.201481 -1.421083
4932.87 27.4898 1.231972 0.983402
4934.01 29.1807 1.244977 2.66403
4935.15 26.5688 1.196365 0.03632
4936.28 26.0337 1.162578 -0.499611
4937.42 26.0351 1.184295 -0.505995
4938.56 26.2248 1.188748 -0.299324
4939.69 27.0322 1.201671 0.491104
4940.83 24.6857 1.182048 -1.838425
4941.97 26.6391 1.20181 0.106979
4943.11 28.7418 1.24053 2.224575
4944.25 27.6238 1.207313 1.125177
4945.38 25.2378 1.167824 -1.294319
4946.52 25.4402 1.16528 -1.077024
4947.66 26.9151 1.187794 0.380802
4948.8 24.2246 1.176335 -2.324478
4949.94 27.115 1.182118 0.555357
4951.08 27.047 1.18275 0.487053
4952.22 24.1839 1.15554 -2.376047
4953.36 26.1214 1.217557 -0.475813
4954.5 27.2521 1.258914 0.62813
4955.64 27.511 1.254554 0.871679
4956.78 27.3665 1.225564 0.727181
4957.93 27.2884 1.197976 0.609163
4959.07 27.411 1.186957 0.69495
4960.21 27.38 1.173615 0.627205
4961.35 26.3708 1.163334 -0.416172
4962.49 23.9511 1.135882 -2.865173
4963.64 24.8495 1.179018 -1.983673
4964.78 26.9433 1.219361 0.110127
4965.92 27.175 1.229946 0.341826
4967.07 25.6749 1.171186 -1.174353
4968.21 25.5289 1.162652 -1.320353
4969.35 26.6761 1.193704 -0.173153
4970.5 25.7102 1.171524 -1.139053
4971.64 25.1074 1.215407 -1.741852
4972.79 26.1098 1.214972 -0.714062
4973.93 27.1338 1.212672 0.335983
4975.08 27.3779 1.209034 0.605827
4976.22 27.0284 1.197688 0.287273
4977.37 26.8555 1.238213 0.096094
4978.52 26.8555 1.242051 0.066471
4979.66 26.714 1.290053 -0.073832
4980.81 26.6493 1.266715 -0.166668
4981.96 27.3749 1.283726 0.534363
4983.1 26.683 1.257028 -0.177969
4984.25 25.9915 1.222909 -0.889131
4985.4 26.8206 1.23145 -0.06002
4986.55 27.6229 1.248226 0.738348
4987.7 26.7276 1.251913 -0.179703
4988.84 27.0989 1.265882 0.214348
4989.99 28.3095 1.285702 1.424948
4991.14 31.7074 1.309647 4.822847
4992.29 31.224 1.284883 4.316698
4993.44 29.4326 1.260846 2.504292
4994.59 31.6137 1.291851 4.701654
4995.74 30.1023 1.292652 3.190254
4996.89 33.216 1.30794 6.303953
4998.04 34.0111 1.325883 7.120062
4999.19 35.5793 1.344651 8.688261
5000.35 40.8363 1.439631 13.94526
5001.5 45.6301 1.509075 18.75357
5002.65 42.1308 1.461381 15.25426
5003.8 34.245 1.342512 7.368465
5004.95 30.0697 1.271098 3.192972
5006.11 29.9693 1.283153 3.092571
5007.26 29.8775 1.299423 3.024149
5008.41 28.5504 1.268249 1.720749
5009.56 30.8283 1.275781 4.022345
5010.72 28.0269 1.218781 1.254271
5011.87 27.2439 1.18231 0.509109
5013.03 27.4713 1.177312 0.780424
5014.18 27.6996 1.183584 0.972946
5015.34 28.53 1.19907 1.778734
5016.49 27.4068 1.211645 0.699451
5017.65 27.4882 1.218152 0.832025
5018.8 27.7216 1.192843 1.014252
5019.96 27.5347 1.170541 0.781378
5021.11 26.8824 1.161839 0.156296
5022.27 25.731 1.169533 -1.047977
5023.43 24.6697 1.291447 -2.135721
5024.58 26.9286 1.215225 0.123178
5025.74 26.4714 1.168373 -0.307579
5026.9 25.5469 1.156816 -1.19602
5028.05 24.8586 1.114612 -1.840788
5029.21 23.072 1.108635 -3.636011
5030.37 23.609 1.108762 -3.065199
5031.53 24.2101 1.113663 -2.424984
5032.69 26.0672 1.132852 -0.5257
5033.85 27.0501 1.156207 0.457201
5035.01 27.0046 1.150123 0.398558
5036.17 27.8716 1.167723 1.265556
5037.33 28.7857 1.171798 2.156857
5038.49 26.9762 1.150772 0.369139
5039.65 27.6569 1.180267 1.085825
5040.81 27.0468 1.167932 0.501316
5041.97 26.739 1.168322 0.166948
5043.13 29.4472 1.168307 2.875149
5044.29 25.7079 1.130151 -0.864153
5045.45 26.052 1.126078 -0.520052
5046.61 28.5003 1.165782 1.928247
5047.78 28.7252 1.181697 2.153149
5048.94 26.772 1.165991 0.199947
5050.1 25.9419 1.15368 -0.630152
5051.26 26.6676 1.152266 0.095549
5052.43 24.0445 1.14791 -2.527552
5053.59 24.7835 1.169081 -1.788551
5054.75 25.7803 1.178976 -0.791752
5055.92 26.0603 1.169652 -0.511751
5057.08 27.3986 1.16786 0.855415
5058.25 25.9974 1.142302 -0.514055
5059.41 26.2406 1.125563 -0.23996
5060.58 24.2849 1.114523 -2.161196
5061.74 23.5736 1.087694 -2.844934
5062.91 24.2022 1.107404 -2.180655
5064.07 23.5467 1.106015 -2.812523
5065.24 25.3392 1.138037 -0.953733
5066.41 26.6344 1.149194 0.403267
5067.57 25.718 1.153168 -0.526375
5068.74 26.0924 1.131758 -0.209227
5069.91 27.8686 1.175477 1.566975
5071.07 27.6309 1.181749 1.306732
5072.24 26.1017 1.177526 -0.281776
5073.41 28.5142 1.204115 2.0618
5074.58 28.0178 1.188683 1.494436
5075.75 26.2461 1.144076 -0.277264
5076.92 25.4778 1.129134 -1.045563
5078.09 25.9301 1.140932 -0.527708
5079.25 28.1407 1.18507 1.682892
5080.42 24.1965 1.123488 -2.2167
5081.59 23.5302 1.127933 -2.826368
5082.76 25.8458 1.149877 -0.453968
5083.94 27.9783 1.223022 1.735785
5085.11 28.7316 1.236648 2.544931
5086.28 27.7403 1.224568 1.61134
5087.45 26.7419 1.190834 0.61294
5088.62 26.1425 1.179053 0.023701
5089.79 26.944 1.169542 0.867968
5090.96 28.6344 1.199387 2.597183
5092.14 29.4642 1.207409 3.401632
5093.31 29.1966 1.195416 3.17804
5094.48 29.2599 1.182889 3.241339
5095.65 29.0213 1.18251 3.002739
5096.83 30.1111 1.22084 4.053726
5098.0 31.2587 1.232992 5.185617
5099.18 31.7284 1.254029 5.692242
5100.35 37.8487 1.345123 11.83113
5101.52 43.0456 1.445328 16.9817
5102.7 41.4063 1.426156 15.31557
5103.87 34.8733 1.314416 8.745298
5105.05 29.781 1.254687 3.606964
5106.23 29.4381 1.243772 3.231241
5107.4 28.1116 1.217464 1.952246
5108.58 27.4888 1.187042 1.259291
5109.75 24.4654 1.140447 -1.725737
5110.93 23.6787 1.110681 -2.453255
5112.11 26.1563 1.138387 0.020563
5113.29 27.5336 1.160073 1.462469
5114.46 26.8943 1.173536 0.859152
5115.64 27.3611 1.199868 1.368902
5116.82 28.8659 1.193087 2.799616
5118.0 27.63 1.193431 1.630037
5119.18 25.0163 1.102691 -1.049984
5120.35 25.3354 1.119433 -0.813074
5121.53 26.1573 1.130216 -0.034412
5122.71 27.0225 1.163426 1.000515
5123.89 26.359 1.149311 0.481043
5125.07 24.8618 1.122178 -0.885672
5126.25 23.92 1.108043 -1.776415
5127.43 23.7137 1.097066 -1.982716
5128.61 23.1121 1.087124 -2.582365
5129.79 25.3508 1.121337 -0.409786
5130.98 24.5972 1.103581 -1.213087
5132.16 25.1288 1.117351 -0.631786
5133.34 26.7238 1.125175 0.913513
5134.52 25.1534 1.118736 -0.656887
5135.7 25.5543 1.123517 -0.228842
5136.89 25.5357 1.125039 -0.294325
5138.07 26.2488 1.141082 0.372246
5139.25 27.5755 1.167391 1.652962
5140.44 28.1821 1.172825 2.211067
5141.62 27.475 1.141078 1.552462
5142.8 27.2543 1.12797 1.155069
5143.99 27.3659 1.15993 1.257498
5145.17 30.3625 1.218076 4.263269
5146.36 32.7884 1.270767 6.679996
5147.54 38.375 1.384284 12.25707
5148.73 53.9119 1.619916 27.79201
5149.91 70.4731 1.89341 44.36473
5151.1 76.2327 2.006233 50.13372
5152.29 66.4794 1.818161 40.39102
5153.47 48.5096 1.536824 22.43139
5154.66 34.8277 1.345203 8.758518
5155.85 30.5347 1.322389 4.475573
5157.03 24.0599 1.19645 -1.990572
5158.22 24.8626 1.169091 -1.177704
5159.41 25.8388 1.185065 -0.192436
5160.6 25.1642 1.142387 -0.865177
5161.79 24.6742 1.131674 -1.345827
5162.97 25.7851 1.117482 -0.223188
5164.16 27.4631 1.142303 1.464457
5165.35 25.7846 1.129096 -0.204207
5166.54 26.8073 1.133601 0.829826
5167.73 26.1582 1.111434 0.180725
5168.92 24.5096 1.096345 -1.467875
5170.11 26.4572 1.092644 0.479725
5171.3 25.5087 1.085921 -0.468775
5172.49 26.5335 1.107912 0.556026
5173.69 26.4949 1.117176 0.517425
5174.88 27.1618 1.122647 1.184326
5176.07 27.2341 1.12006 1.256626
5177.26 25.5343 1.116048 -0.443174
5178.45 29.5956 1.15933 3.618126
5179.65 25.2041 1.120263 -0.773375
5180.84 25.7043 1.100346 -0.273174
5182.03 26.6329 1.122581 0.655426
5183.22 24.6629 1.092025 -1.314573
5184.42 23.882 1.068746 -2.095474
5185.61 22.9002 1.038729 -3.077274
5186.81 23.3643 1.026173 -2.613174
5188.0 24.5012 1.059941 -1.466232
5189.2 25.7139 1.104649 -0.242666
5190.39 27.0532 1.137447 1.107224
5191.59 28.1424 1.151622 2.217611
5192.78 27.1616 1.135503 1.256983
5193.98 24.8921 1.083704 -0.99334
5195.17 24.9393 1.073326 -0.926777
5196.37 24.9549 1.079903 -0.891916
5197.57 24.3597 1.074587 -1.477205
5198.76 24.9281 1.098914 -0.890898
5199.96 24.6714 1.145531 -1.151775
5201.16 25.4722 1.198661 -0.353783
5202.36 25.2594 1.183922 -0.557095
5203.55 26.3591 1.193026 0.542606
5204.75 29.0868 1.206873 3.254242
5205.95 29.587 1.215241 3.737349
5207.15 26.0613 1.16395 0.193273
5208.35 27.7725 1.150166 1.885511
5209.55 27.1065 1.130305 1.218119
5210.75 25.3375 1.113412 -0.544825
5211.95 25.5505 1.139646 -0.331823
5213.15 26.5922 1.137514 0.709875
5214.35 25.3206 1.099034 -0.561724
5215.55 24.3218 1.078496 -1.558994
5216.75 24.4988 1.079627 -1.364248
5217.95 24.9519 1.113252 -0.893717
5219.15 25.0978 1.107177 -0.737728
5220.35 24.9593 1.091138 -0.859205
5221.56 24.541 1.087934 -1.26046
5222.76 26.3725 1.109954 0.577095
5223.96 25.5438 1.141052 -0.236345
5225.16 24.5101 1.122488 -1.269669
5226.37 23.7755 1.081932 -2.004269
5227.57 21.5881 1.035133 -4.191668
5228.78 22.7121 1.053918 -3.073105
5229.98 25.0865 1.110312 -0.677713
5231.18 26.3845 1.133517 0.620287
5232.39 25.7344 1.113454 -0.029814
5233.59 24.9299 1.095727 -0.822704
5234.8 25.8859 1.126123 0.152317
5236.0 25.9664 1.139874 0.254055
5237.21 24.9364 1.114588 -0.758131
5238.42 26.394 1.134778 0.722176
5239.62 27.7983 1.188962 2.126476
5240.83 27.8409 1.236528 2.169077
5242.04 27.4573 1.218688 1.76277
5243.24 24.7384 1.145405 -0.963915
5244.45 24.5532 1.089453 -1.166637
5245.66 24.6997 1.087756 -1.020138
5246.87 24.1874 1.091343 -1.543608
5248.07 24.3173 1.092505 -1.415184
5249.28 25.9111 1.107474 0.183109
5250.49 26.2087 1.101967 0.480709
5251.7 25.83 1.099648 0.122564
5252.91 25.0602 1.121445 -0.636862
5254.12 24.7333 1.154902 -0.963762
5255.33 24.4704 1.120711 -1.21987
5256.54 24.1708 1.113259 -1.536741
5257.75 26.3408 1.136045 0.627668
5258.96 24.8787 1.133943 -0.834431
5260.17 26.1485 1.130325 0.413582
5261.38 27.6769 1.155432 1.920376
5262.6 27.0247 1.116985 1.259979
5263.81 26.3009 1.134115 0.536179
5265.02 26.9232 1.15681 1.180111
5266.23 28.4091 1.173248 2.688004
5267.44 29.1 1.179409 3.392179
5268.66 26.8798 1.123542 1.171822
5269.87 25.5103 1.11761 -0.183643
5271.08 27.6163 1.113369 1.933197
5272.3 22.6344 1.054307 -3.059544
5273.51 24.7247 1.079999 -0.965925
5274.73 23.5892 1.07518 -2.111164
5275.94 22.9124 1.077242 -2.799456
5277.16 24.0257 1.067663 -1.697266
5278.37 22.773 1.085423 -2.959902
5279.59 24.8585 1.130319 -0.885012
5280.8 23.7696 1.137735 -1.984322
5282.02 24.4754 1.118113 -1.288628
5283.24 25.3357 1.115049 -0.438536
5284.45 24.5768 1.095244 -1.208021
5285.67 23.9977 1.110491 -1.782139
5286.89 24.5903 1.114127 -1.197231
5288.1 23.9723 1.090552 -1.825504
5289.32 25.9279 1.130114 0.119358
5290.54 24.8496 1.121466 -0.966253
5291.76 22.4515 1.084591 -3.373537
5292.98 25.2616 1.095719 -0.549261
5294.2 24.5425 1.081166 -1.250353
5295.41 26.7776 1.095479 1.001822
5296.63 24.958 1.089115 -0.800455
5297.85 23.4724 1.084031 -2.266363
5299.07 24.2251 1.093488 -1.504519
5300.29 23.1857 1.106774 -2.563246
5301.52 22.9936 1.120007 -2.772057
5302.74 25.5159 1.116165 -0.249779
5303.96 26.0271 1.115711 0.261421
5305.18 26.4128 1.165797 0.647121
5306.4 27.2845 1.202643 1.502392
5307.62 26.7401 1.129873 0.941439
5308.84 27.3434 1.151543 1.543392
5310.07 26.3836 1.164503 0.567142
5311.29 25.8863 1.161111 0.052448
5312.51 25.3974 1.133835 -0.454207
5313.74 23.7938 1.104852 -2.076105
5314.96 21.761 1.080536 -4.108118
5316.18 21.4841 1.043131 -4.403225
5317.41 19.845 1.008535 -6.053146
5318.63 20.7128 1.031354 -5.203371
5319.86 22.467 1.100089 -3.451124
5321.08 21.7992 1.094409 -4.106997
5322.31 20.3077 1.049135 -5.608561
5323.53 25.2326 1.077838 -0.691979
5324.76 24.5141 1.087487 -1.420389
5325.99 24.4602 1.114648 -1.484165
5327.21 26.7277 1.122238 0.774674
5328.44 27.4851 1.128716 1.522402
5329.67 24.4349 1.073288 -1.5368
5330.89 23.2987 1.055818 -2.682322
5332.12 23.1227 1.0437 -2.867493
5333.35 19.1196 0.996934 -6.879965
5334.58 19.0875 0.995224 -6.921032
5335.81 24.3753 1.076057 -1.624266
5337.03 26.1621 1.099939 0.171907
5338.26 23.6249 1.077743 -2.356279
5339.49 24.5586 1.07091 -1.421583
5340.72 24.0637 1.067507 -1.925468
5341.95 24.4946 1.074889 -1.503702
5343.18 24.9105 1.077402 -1.105505
5344.41 22.278 1.057084 -3.756021
5345.64 25.0285 1.082951 -1.020144
5346.87 23.7341 1.087202 -2.314543
5348.11 25.4897 1.101119 -0.574226
5349.34 28.1331 1.133123 2.078127
5350.57 28.1783 1.145731 2.129526
5351.8 27.0315 1.145923 0.964247
5353.03 26.7334 1.126272 0.666035
5354.27 23.8544 1.081057 -2.230774
5355.5 23.7926 1.340946 -2.292574
5356.73 23.4822 1.369354 -2.585165
5357.97 21.9246 1.300089 -4.124174
5359.2 22.5092 1.083362 -3.536137
5360.43 23.0298 1.050259 -3.015535
5361.67 24.6263 1.068634 -1.404978
5362.9 25.0962 1.074123 -0.935078
5364.14 26.0562 1.114919 0.026922
5365.37 26.709 1.133177 0.697426
5366.61 24.9451 1.124012 -1.084177
5367.85 25.8541 1.127835 -0.175178
5369.08 26.6141 1.148952 0.584822
5370.32 25.705 1.087644 -0.324278
5371.55 25.6458 1.103401 -0.388977
5372.79 26.4232 1.081025 0.390644
5374.03 25.5201 1.078523 -0.494755
5375.27 24.8899 1.073485 -1.106834
5376.5 24.1299 1.075125 -1.848923
5377.74 21.8603 1.03264 -4.118523
5378.98 23.0842 1.072656 -2.894623
5380.22 25.832 1.090106 -0.164734
5381.46 24.0708 1.065408 -1.944054
5382.7 25.8896 1.078648 -0.130798
5383.94 25.5845 1.083874 -0.453579
5385.18 25.7968 1.085361 -0.25754
5386.42 26.5405 1.146249 0.478277
5387.66 27.2845 1.150908 1.229021
5388.9 28.0243 1.153455 1.977964
5390.14 26.9817 1.115535 0.943609
5391.38 26.4621 1.136381 0.424543
5392.62 25.5872 1.098275 -0.440777
5393.86 25.8371 1.103233 -0.182364
5395.11 27.2154 1.110709 1.187424
5396.35 27.552 1.128567 1.514444
5397.59 26.9942 1.15403 0.956644
5398.83 26.1825 1.148222 0.144945
5400.08 24.9275 1.108206 -1.110056
5401.32 24.9732 1.077081 -1.071583
5402.56 25.7748 1.063721 -0.272999
5403.81 25.1237 1.08095 -0.938097
5405.05 25.1272 1.077687 -0.949345
5406.3 25.2712 1.078766 -0.82037
5407.54 24.8732 1.063266 -1.220457
5408.79 26.1341 1.120356 0.024229
5410.03 28.0139 1.14847 1.887133
5411.28 27.3844 1.148698 1.241106
5412.53 27.2884 1.107271 1.139847
5413.77 24.1663 1.043102 -1.982254
5415.02 23.8005 1.0584 -2.348053
5416.27 23.9447 1.094938 -2.205875
5417.51 23.531 1.131165 -2.635941
5418.76 24.4326 1.082342 -1.738413
5420.01 22.1937 1.024401 -3.97624
5421.26 22.5185 1.019071 -3.665571
5422.51 22.9875 1.063741 -3.196571
5423.75 23.4282 1.064167 -2.742918
5425.0 24.9332 1.087169 -1.232374
5426.25 26.6861 1.08766 0.520525
5427.5 25.6163 1.085917 -0.549274
5428.75 26.005 1.105902 -0.177711
5430.0 27.0395 1.137022 0.838936
5431.25 27.2204 1.119161 1.001503
5432.5 26.4283 1.096551 0.209404
5433.75 25.9778 1.07964 -0.259138
5435.01 26.66 1.104307 0.424271
5436.26 24.4964 1.072698 -1.749826
5437.51 25.7483 1.100436 -0.516663
5438.76 26.409 1.122986 0.124914
5440.01 25.876 1.119877 -0.4272
5441.27 28.5897 1.141486 2.267529
5442.52 28.136 1.148582 1.810186
5443.77 28.0608 1.147526 1.745541
5445.03 29.435 1.188296 3.11974
5446.28 28.6493 1.160766 2.340158
5447.53 26.5234 1.142606 0.229086
5448.79 26.8544 1.12496 0.579197
5450.04 24.6937 1.086969 -1.590731
5451.3 24.6195 1.077025 -1.657314
5452.55 25.6441 1.113492 -0.632713
5453.81 26.2718 1.131634 -0.005014
5455.07 25.6151 1.114631 -0.64259
5456.32 24.9908 1.102548 -1.26689
5457.58 28.3103 1.114424 2.071346
5458.84 25.5645 1.095606 -0.69319
5460.09 27.7994 1.138101 1.522587
5461.35 28.215 1.285533 1.928617
5462.61 26.3142 1.472583 0.018272
5463.87 30.582 1.560169 4.276857
5465.12 28.8312 1.396997 2.516298
5466.38 30.3396 1.301124 4.015472
5467.64 27.8435 1.223208 1.525116
5468.9 27.3252 1.157878 1.005205
5470.16 28.9003 1.169516 2.571398
5471.42 25.5805 1.114935 -0.757793
5472.68 28.2087 1.130919 1.880377
5473.94 27.8688 1.134421 1.531944
5475.2 26.9391 1.12103 0.592306
5476.46 26.3689 1.10497 0.032045
5477.72 25.8869 1.137403 -0.445003
5478.98 25.5752 1.140467 -0.76516
5480.25 24.8205 1.104099 -1.528751
5481.51 24.3109 1.087667 -2.047159
5482.77 24.2304 1.079012 -2.118851
5484.03 24.848 1.104074 -1.497566
5485.3 25.7822 1.119998 -0.572147
5486.56 26.1434 1.114759 -0.221363
5487.82 26.1889 1.119231 -0.18458
5489.09 27.2323 1.148274 0.848421
5490.35 27.6526 1.148455 1.26008
5491.61 27.6586 1.117713 1.266172
5492.88 27.4648 1.137638 1.080833
5494.14 26.4879 1.1355 0.114113
5495.41 25.5753 1.127994 -0.805967
5496.67 26.5409 1.158289 0.15295
5497.94 27.2813 1.131869 0.883831
5499.21 27.1727 1.127477 0.76573
5500.47 26.6648 1.101075 0.249626
5501.74 26.2685 1.166659 -0.156
5503.01 26.3288 1.250783 -0.104196
5504.27 26.0081 1.225663 -0.43408
5505.54 27.7008 1.154724 1.249058
5506.81 27.6235 1.115607 1.163025
5508.08 25.8399 1.111913 -0.611843
5509.35 27.5231 1.150912 1.062624
5510.61 30.0743 1.215725 3.619247
5511.88 30.5676 1.256477 4.12101
5513.15 27.9324 1.269142 1.495285
5514.42 27.5593 1.243403 1.112709
5515.69 29.5765 1.181675 3.121447
5516.96 28.4327 1.140319 1.968445
5518.23 27.4722 1.135617 0.998987
5519.5 26.5738 1.162101 0.10545
5520.77 28.9092 1.185278 2.448866
5522.05 28.1799 1.138863 1.71155
5523.32 24.3755 1.077628 -2.10173
5524.59 24.9901 1.087304 -1.496471
5525.86 24.9721 1.102171 -1.522696
5527.13 25.944 1.121548 -0.549599
5528.41 27.4279 1.312379 0.943512
5529.68 29.1562 1.196136 2.679842
5530.95 30.967 1.18898 4.481453
5532.23 31.7652 1.213078 5.271601
5533.5 29.7343 1.173011 3.233362
5534.78 28.7678 1.149226 2.275763
5536.05 27.3919 1.129117 0.907887
5537.32 26.0632 1.079198 -0.412947
5538.6 25.8855 1.09747 -0.5847
5539.88 26.7014 1.104292 0.227478
5541.15 27.4884 1.136369 1.006781
5542.43 27.7732 1.134266 1.283411
5543.7 26.9298 1.155975 0.434124
5544.98 25.3327 1.120515 -1.160904
5546.26 24.8452 1.102034 -1.656219
5547.53 26.277 1.104277 -0.219402
5548.81 25.4508 1.076974 -1.05337
5550.09 25.7905 1.072869 -0.706066
5551.37 24.8818 1.074058 -1.607004
5552.65 23.7893 1.055828 -2.69208
5553.92 24.6754 1.083926 -1.798048
5555.2 26.6979 1.124082 0.230661
5556.48 25.5209 1.106671 -0.93928
5557.76 24.2237 1.06273 -2.235895
5559.04 24.8531 1.037948 -1.601727
5560.32 25.8582 1.081603 -0.588997
5561.6 25.5012 1.081074 -0.939278
5562.88 24.4498 1.079712 -1.984058
5564.16 25.0835 1.090832 -1.350359
5565.45 25.0201 1.11771 -1.413759
5566.73 24.7521 1.11875 -1.681759
5568.01 25.5307 1.107599 -0.903158
5569.29 27.4967 1.126518 1.062841
5570.57 28.5481 1.135375 2.100008
5571.86 25.8591 1.098898 -0.603642
5573.14 26.9857 1.116215 0.508371
5574.42 26.3598 1.167243 -0.132126
5575.71 26.9648 1.390799 0.457573
5576.99 29.4904 1.715119 2.975786
5578.28 31.4469 3.48323 4.932285
5579.56 41.0843 6.488939 14.58502
5580.85 35.1274 6.466582 8.635237
5582.13 32.4197 3.855754 5.932344
5583.42 31.1702 1.801872 4.682844
5584.7 27.2181 1.202477 0.71541
5585.99 26.8248 1.150569 0.337444
5587.27 26.6465 1.136726 0.173742
5588.56 24.6314 1.090701 -1.826769
5589.85 24.9798 1.084865 -1.476173
5591.14 25.955 1.117442 -0.500973
5592.42 25.864 1.092658 -0.59334
5593.71 26.3503 1.099244 -0.12163
5595.0 27.0621 1.102545 0.59017
5596.29 27.703 1.120805 1.216475
5597.58 28.2075 1.139232 1.705639
5598.87 27.9697 1.131416 1.452505
5600.15 27.3319 1.13002 0.805868
5601.44 27.1951 1.114302 0.684403
5602.73 26.0582 1.082715 -0.437164
5604.02 23.474 1.044471 -3.010706
5605.31 24.0248 1.054599 -2.468805
5606.61 26.4715 1.099331 -0.036665
5607.9 27.3732 1.131845 0.850529
5609.19 26.0149 1.120653 -0.521957
5610.48 25.6362 1.12854 -0.902187
5611.77 26.6077 1.138673 0.055777
5613.06 25.7233 1.095301 -0.842346
5614.36 25.0199 1.106974 -1.545748
5615.65 26.3355 1.128731 -0.230146
5616.94 27.9245 1.163681 1.344776
5618.24 28.1829 1.169597 1.597288
5619.53 26.8922 1.160748 0.29232
5620.82 27.7497 1.15297 1.135334
5622.12 27.1892 1.120783 0.589096
5623.41 25.2462 1.08304 -1.339411
5624.71 26.635 1.105579 0.053537
5626.0 25.6719 1.126718 -0.924126
5627.3 27.199 1.136325 0.610985
5628.59 27.5274 1.124104 0.939384
5629.89 27.105 1.119949 0.502274
5631.19 27.2809 1.133867 0.666929
5632.48 27.053 1.146354 0.423672
5633.78 26.0435 1.12954 -0.579384
5635.08 25.5915 1.127416 -1.020697
5636.38 24.971 1.10354 -1.634144
5637.67 25.5927 1.120432 -1.012445
5638.97 26.0638 1.085064 -0.541344
5640.27 24.2203 1.064625 -2.393826
5641.57 27.202 1.098844 0.584053
5642.87 26.3702 1.112879 -0.2631
5644.17 27.8729 1.105704 1.223921
5645.47 28.0781 1.12695 1.416504
5646.77 25.6372 1.091792 -1.023535
5648.07 25.8153 1.105586 -0.860693
5649.37 24.4937 1.104115 -2.197824
5650.67 27.7509 1.144691 1.059376
5651.97 28.3652 1.189484 1.661692
5653.27 26.8725 1.203622 0.18417
5654.58 26.9838 1.170683 0.310478
5655.88 28.3514 1.145568 1.674349
5657.18 27.1297 1.127025 0.452648
5658.48 26.7208 1.147042 0.04435
5659.79 26.0656 1.1695 -0.610851
5661.09 26.3602 1.145454 -0.31625
5662.39 27.4143 1.137395 0.73785
5663.7 26.6948 1.126339 0.018349
5665.0 25.8113 1.144001 -0.874378
5666.31 27.2623 1.174624 0.591118
5667.61 26.7583 1.172872 0.097891
5668.92 25.6448 1.128813 -1.018187
5670.22 26.0507 1.12321 -0.624554
5671.53 26.8815 1.161525 0.206247
5672.83 27.2602 1.186196 0.580675
5674.14 27.2009 1.16495 0.521374
5675.45 25.6866 1.159945 -0.992926
5676.75 26.1835 1.209775 -0.496025
5678.06 28.458 1.232419 1.776693
5679.37 28.0795 1.200572 1.398193
5680.68 28.9003 1.213325 2.210295
5681.98 29.1365 1.246738 2.432283
5683.29 27.6726 1.25111 0.968384
5684.6 26.3882 1.188294 -0.316015
5685.91 25.9047 1.205046 -0.799517
5687.22 25.2093 1.298198 -1.494917
5688.53 26.7403 1.364331 0.02529
5689.84 26.7716 1.281432 0.042137
5691.15 27.5918 1.376086 0.859139
5692.46 28.1531 1.429206 1.427925
5693.77 27.7566 1.284963 1.038639
5695.08 27.9592 1.251977 1.247812
5696.39 27.4976 1.236251 0.77113
5697.71 27.193 1.197888 0.459524
5699.02 28.3616 1.213827 1.613323
5700.33 26.9335 1.438419 0.185223
5701.64 25.2069 1.477361 -1.526577
5702.96 29.1833 1.204225 2.449823
5704.27 26.1838 1.165525 -0.534594
5705.58 25.4194 1.174087 -1.298994
5706.9 25.8603 1.161367 -0.852503
5708.21 27.5165 1.174417 0.818499
5709.53 28.7277 1.201836 2.032532
5710.84 27.0017 1.171708 0.321081
5712.16 28.461 1.157323 1.783182
5713.47 26.2564 1.154027 -0.421419
5714.79 25.8712 1.196711 -0.814966
5716.1 27.0394 1.248105 0.356735
5717.42 27.45 1.201004 0.767336
5718.74 27.5605 1.165656 0.865669
5720.05 27.4308 1.174628 0.723064
5721.37 26.4301 1.428631 -0.291014
5722.69 24.5876 1.412534 -2.146799
5724.0 25.7996 1.398132 -0.934732
5725.32 29.1854 1.24911 2.459291
5726.64 28.6201 1.257252 1.906984
5727.96 26.8973 1.237134 0.184185
5729.28 25.7061 1.163917 -1.007015
5730.6 25.6583 1.096855 -1.054815
5731.92 26.0036 1.129311 -0.709516
5733.24 26.1794 1.134804 -0.546709
5734.56 26.6787 1.148659 -0.060024
5735.88 28.0271 1.155299 1.281898
5737.2 28.5421 1.162431 1.80958
5738.52 26.8254 1.139345 0.106098
5739.84 26.3856 1.138793 -0.335943
5741.16 27.3666 1.178722 0.631836
5742.49 26.2199 1.188119 -0.527544
5743.81 28.0654 1.228197 1.305357
5745.13 25.7478 1.166848 -1.024872
5746.45 25.4345 1.107015 -1.345278
5747.78 25.6802 1.104 -1.099577
5749.1 25.0049 1.139647 -1.774878
5750.43 26.1134 1.152774 -0.666378
5751.75 25.0959 1.110026 -1.678186
5753.07 26.4864 1.131149 -0.300695
5754.4 26.1782 1.110358 -0.621986
5755.72 25.4121 1.103205 -1.39942
5757.05 25.492 1.109813 -1.332764
5758.38 24.7051 1.115912 -2.132965
5759.7 25.4274 1.133783 -1.423302
5761.03 24.1924 1.107228 -2.670815
5762.35 25.4837 1.136217 -1.392002
5763.68 25.3551 1.093453 -1.529804
5765.01 24.5511 1.114906 -2.345713
5766.34 29.3017 1.187763 2.404888
5767.66 27.4614 1.177447 0.564587
5768.99 27.9603 1.202535 1.051596
5770.32 28.1371 1.283444 1.224871
5771.65 27.4745 1.348671 0.551136
5772.98 27.7655 1.362351 0.835777
5774.31 28.3468 1.283873 1.412575
5775.64 24.727 1.177151 -2.200899
5776.97 26.5547 1.13797 -0.379524
5778.3 26.1736 1.125208 -0.76498
5779.63 25.8372 1.155811 -1.097025
5780.96 27.1357 1.162436 0.197121
5782.29 25.3365 1.140968 -1.603504
5783.62 25.8986 1.128788 -1.037144
5784.96 25.9837 1.13645 -0.961195
5786.29 25.7187 1.1325 -1.236269
5787.62 25.3215 1.117509 -1.643524
5788.95 26.1328 1.158643 -0.842133
5790.29 28.4802 1.227449 1.496346
5791.62 26.0043 1.226519 -0.989729
5792.95 27.6261 1.231133 0.628767
5794.29 28.2003 1.268209 1.202967
5795.62 27.3345 1.292981 0.337166
5796.96 26.6643 1.243994 -0.333033
5798.29 25.6835 1.166285 -1.313833
5799.63 25.7729 1.152803 -1.223021
5800.96 26.2997 1.198017 -0.69622
5802.3 26.5977 1.255556 -0.408188
5803.63 26.9841 1.259115 -0.031824
5804.97 27.4632 1.218978 0.436611
5806.31 27.167 1.225222 0.140411
5807.64 26.2352 1.257909 -0.801691
5808.98 27.8643 1.256448 0.81707
5810.32 27.4097 1.186307 0.352215
5811.66 25.4433 1.145754 -1.624592
5813.0 25.1935 1.164684 -1.884941
5814.33 27.0239 1.215937 -0.054543
5815.67 27.1955 1.207523 0.117058
5817.01 27.8729 1.189806 0.80213
5818.35 27.0836 1.206552 0.01506
5819.69 25.7729 1.199489 -1.285233
5821.03 25.0444 1.128918 -2.006252
5822.37 25.0393 1.14679 -2.011351
5823.71 28.5133 1.191798 1.462648
5825.05 25.5256 1.166207 -1.534451
5826.4 25.7328 1.166972 -1.330044
5827.74 27.8569 1.243042 0.794056
5829.08 27.7804 1.306581 0.712782
5830.42 27.5118 1.270757 0.442038
5831.76 26.7184 1.203385 -0.357374
5833.11 26.4424 1.158139 -0.644575
5834.45 26.6391 1.191643 -0.45899
5835.79 27.1839 1.286435 0.077026
5837.14 28.1906 1.225823 1.072868
5838.48 29.1747 1.218052 2.045954
5839.83 28.0888 1.184168 0.948868
5841.17 28.0334 1.179002 0.889112
5842.52 28.2731 1.191313 1.117809
5843.86 26.9769 1.154522 -0.178391
5845.21 25.8105 1.149974 -1.339062
5846.55 27.806 1.170719 0.650709
5847.9 27.1729 1.196595 0.012018
5849.25 27.9701 1.200033 0.803993
5850.59 26.9755 1.193978 -0.185381
5851.94 25.7845 1.241256 -1.37079
5853.29 26.1356 1.218731 -1.024483
5854.64 26.5379 1.165068 -0.625219
5855.99 28.4115 1.192569 1.254436
5857.33 27.0936 1.212536 -0.063936
5858.68 27.8965 1.239492 0.733591
5860.03 28.907 1.242811 1.737934
5861.38 28.6701 1.221754 1.495008
5862.73 29.8495 1.198576 2.679045
5864.08 26.789 1.20608 -0.387508
5865.43 26.0771 1.207538 -1.1049
5866.78 26.4472 1.274964 -0.733391
5868.13 27.5302 1.191414 0.338444
5869.49 27.577 1.19519 0.374435
5870.84 24.6275 1.190282 -2.575064
5872.19 26.4915 1.211406 -0.721792
5873.54 26.2263 1.152269 -0.980627
5874.89 24.1956 1.127622 -3.016781
5876.25 24.5883 1.114233 -2.634943
5877.6 26.3634 1.114321 -0.870575
5878.95 24.6871 1.099266 -2.536144
5880.31 26.7901 1.099686 -0.431787
5881.66 28.0791 1.113626 0.867992
5883.02 29.5034 1.103297 2.303431
5884.37 29.4824 1.090281 2.293524
5885.73 28.1751 1.095165 0.979408
5887.08 28.7132 1.133312 1.50749
5888.44 27.9708 1.120124 0.754559
5889.79 29.7349 1.28142 2.508301
5891.15 26.4359 1.650597 -0.793404
5892.51 24.6735 2.237624 -2.555431
5893.86 27.4113 2.114401 0.182369
5895.22 26.2056 1.563134 -1.023331
5896.58 28.3443 1.492502 1.120672
5897.94 26.7422 1.741354 -0.471514
5899.29 27.1758 1.80348 -0.035723
5900.65 27.6523 1.550848 0.444113
5902.01 26.0563 1.215668 -1.161402
5903.37 26.1915 1.095103 -1.036097
5904.73 26.0834 1.066521 -1.144196
5906.09 27.496 1.088905 0.268404
5907.45 26.8058 1.07614 -0.421797
5908.81 26.1726 1.027969 -1.064793
5910.17 26.9377 1.022169 -0.299692
5911.53 26.201 1.014527 -1.036392
5912.89 26.9184 1.006152 -0.327889
5914.25 27.5575 1.036007 0.311213
5915.62 27.0663 1.049768 -0.189791
5916.98 26.8596 1.083997 -0.404985
5918.34 27.3557 1.09738 0.092234
5919.7 26.9531 1.06959 -0.301649
5921.07 27.0178 1.039332 -0.226877
5922.43 28.1514 1.022712 0.915493
5923.79 27.8666 1.036986 0.630693
5925.16 27.0797 1.011808 -0.156206
5926.52 26.5945 1.025616 -0.649378
5927.89 25.7687 1.003904 -1.472023
5929.25 28.0656 1.007384 0.824877
5930.62 27.5088 1.105864 0.258061
5931.98 27.3412 1.107425 0.083384
5933.35 28.4404 1.185536 1.17317
5934.72 28.7185 1.081039 1.441568
5936.08 27.1954 1.0849 -0.091364
5937.45 27.1807 1.064606 -0.106064
5938.82 26.2299 1.025009 -1.047031
5940.19 26.2395 1.018234 -1.032755
5941.55 27.0621 1.025452 -0.218307
5942.92 27.7501 1.013686 0.469692
5944.29 28.5045 1.086052 1.230804
5945.66 28.8535 1.082938 1.570225
5947.03 27.4136 1.066608 0.139906
5948.4 26.7794 1.019585 -0.494295
5949.77 26.3621 1.018014 -0.913223
5951.14 25.6311 0.976044 -1.644224
5952.51 26.1678 0.963 -1.116571
5953.88 26.3431 1.002616 -0.950512
5955.25 27.2496 1.054057 -0.053373
5956.62 27.1936 1.059958 -0.118847
5957.99 27.039 1.043768 -0.273447
5959.37 27.6557 1.039328 0.341999
5960.74 27.9358 1.001581 0.618074
5962.11 28.2546 1.003434 0.928095
5963.48 28.1855 1.003222 0.850061
5964.86 27.6564 0.986 0.31218
5966.23 27.0144 0.968263 -0.329821
5967.6 27.3367 0.973543 -0.007521
5968.98 29.3065 0.994309 1.958612
5970.35 30.0419 1.048723 2.702749
5971.73 29.0052 1.067601 1.672794
5973.1 27.5776 1.050603 0.254126
5974.48 27.4951 1.015437 0.180405
5975.85 28.581 1.009785 1.273539
5977.23 28.3013 0.991212 1.001842
5978.61 26.113 0.995427 -1.177359
5979.98 28.5621 1.017254 1.27174
5981.36 27.3913 0.989043 0.100941
5982.74 25.9166 0.989585 -1.37376
5984.12 27.7149 0.986426 0.419197
5985.49 27.0253 0.98883 -0.272585
5986.87 25.5675 0.968217 -1.730385
5988.25 28.4224 0.99941 1.124516
5989.63 29.445 1.008619 2.143278
5991.01 28.5367 1.013833 1.234978
5992.39 27.8678 1.009018 0.566078
5993.77 27.1704 1.021012 -0.131321
5995.15 29.0918 1.042467 1.790079
5996.53 27.4659 1.006428 0.158281
5997.91 27.8922 0.991743 0.584581
5999.29 29.0076 0.996573 1.699982
6000.67 28.1858 0.997296 0.882887
6002.06 27.8603 1.000963 0.548769
6003.44 27.1105 1.005551 -0.209757
6004.82 26.4551 0.993102 -0.86611
6006.2 27.6562 1.018446 0.332398
6007.59 28.7823 1.023824 1.454634
6008.97 28.1829 1.011325 0.84897
6010.35 27.7618 1.013949 0.426058
6011.74 29.0131 1.008643 1.670164
6013.12 29.2294 0.989454 1.877974
6014.51 28.1929 0.98002 0.841473
6015.89 28.0606 0.982387 0.707411
6017.28 28.3665 0.976556 1.005836
6018.66 26.5459 0.942457 -0.814764
6020.05 28.0574 0.956997 0.696735
6021.43 26.931 0.950435 -0.42815
6022.82 26.2073 0.970915 -1.147268
6024.21 26.03 0.96397 -1.33279
6025.6 25.648 0.975603 -1.723166
6026.98 26.2178 0.953112 -1.162663
6028.37 25.6932 0.936865 -1.687263
6029.76 27.3043 0.937977 -0.066866
6031.15 28.1037 0.960611 0.732534
6032.54 28.1746 0.964791 0.803434
6033.93 28.2996 0.954326 0.928434
6035.32 27.4251 0.958645 0.058558
6036.71 27.495 0.98785 0.127123
6038.1 29.3158 1.017586 1.944653
6039.49 27.7436 0.980486 0.372454
6040.88 27.2987 0.968167 -0.075865
6042.27 29.8615 0.976147 2.479967
6043.66 29.0638 0.982458 1.683123
6045.05 31.5593 1.017641 4.178621
6046.44 30.2159 1.025498 2.835222
6047.84 28.7456 0.997137 1.364922
6049.23 28.3199 0.986278 0.939222
6050.62 27.8929 0.97532 0.504898
6052.02 27.9409 0.966475 0.552898
6053.41 28.7626 0.967442 1.374598
6054.8 27.5144 0.970293 0.126444
6056.2 26.387 0.940326 -0.992947
6057.59 25.8016 0.960394 -1.578346
6058.99 24.8981 0.951294 -2.481846
6060.38 23.9672 0.937194 -3.420757
6061.78 24.4193 0.92418 -2.968657
6063.17 25.2712 0.931489 -2.108746
6064.57 25.9261 0.943304 -1.453846
6065.97 24.4077 0.91969 -2.964184
6067.36 23.0863 0.925755 -4.277388
6068.76 26.8597 0.966461 -0.497921
6070.16 25.8372 0.980986 -1.512417
6071.56 26.0037 0.98991 -1.345917
6072.95 26.8499 1.010667 -0.499718
6074.35 27.7238 1.057221 0.374184
6075.75 27.8746 1.032711 0.524342
6077.15 26.5519 0.99995 -0.794811
6078.55 27.8336 1.001933 0.484192
6079.95 26.8245 0.988608 -0.532909
6081.35 27.7992 1.008966 0.441792
6082.75 29.0472 1.018571 1.689791
6084.15 27.8382 0.985325 0.480791
6085.55 26.8653 0.978209 -0.492109
6086.95 27.4392 0.986657 0.07379
6088.36 26.874 0.992774 -0.499302
6089.76 26.158 0.999216 -1.215302
6091.16 26.4306 0.986854 -0.942703
6092.56 27.2537 0.989895 -0.11171
6093.97 27.4451 0.994343 0.087692
6095.37 28.1936 1.007521 0.838896
6096.77 27.8721 1.002401 0.525375
6098.18 27.0852 0.998081 -0.253683
6099.58 27.4876 1.001277 0.152679
6100.99 29.0458 1.024901 1.714554
6102.39 29.2198 1.026622 1.88488
6103.8 27.1952 1.003729 -0.147451
6105.2 26.4997 0.996909 -0.83522
6106.61 27.068 1.024096 -0.26692
6108.01 27.305 1.027522 -0.036499
6109.42 27.4758 1.007179 0.1343
6110.83 29.0318 1.019236 1.6903
6112.23 27.7137 0.997559 0.3722
6113.64 26.602 0.979015 -0.7395
6115.05 26.7903 0.970065 -0.546081
6116.46 27.5444 0.978162 0.20015
6117.87 28.0725 0.986431 0.728251
6119.28 28.2454 0.983227 0.90115
6120.68 27.6956 0.977545 0.351351
6122.09 28.3022 0.984131 0.957951
6123.5 28.4263 1.009788 1.089785
6124.91 27.4597 0.996786 0.123184
6126.32 26.6038 0.977241 -0.732716
6127.74 26.893 0.957528 -0.43919
6129.15 26.0751 0.929214 -1.25709
6130.56 26.2693 0.935029 -1.062889
6131.97 26.5051 0.943917 -0.819025
6133.38 26.882 0.927522 -0.434284
6134.79 27.3852 0.936126 0.068916
6136.21 27.3289 0.939906 0.012615
6137.62 29.2526 0.961232 1.936316
6139.03 27.7897 0.947015 0.481243
6140.45 27.3565 0.93317 0.05547
6141.86 28.1217 0.943006 0.825226
6143.28 28.2057 0.943829 0.917276
6144.69 28.1682 0.938833 0.885099
6146.11 26.7771 0.936208 -0.503702
6147.52 26.6588 0.929122 -0.619598
6148.94 27.2634 0.96177 -0.014999
6150.35 27.4487 0.924192 0.170301
6151.77 26.8232 0.909068 -0.454798
6153.19 26.4254 0.899326 -0.844582
6154.6 28.1727 0.923932 0.910795
6156.02 24.6568 0.897817 -2.597136
6157.44 25.305 0.926283 -1.942053
6158.86 27.0769 0.945329 -0.170153
6160.27 25.8044 0.941822 -1.442654
6161.69 27.5653 0.958966 0.318247
6163.11 27.6769 0.98127 0.429848
6164.53 28.2089 1.013038 0.961847
6165.95 27.6883 0.964306 0.445673
6167.37 26.9216 0.927833 -0.326094
6168.79 27.1106 0.926458 -0.136232
6170.21 27.2915 0.91313 0.053337
6171.63 27.5666 0.951579 0.335813
6173.05 28.1918 1.018198 0.969376
6174.47 27.8732 0.98659 0.659184
6175.9 26.3797 0.921254 -0.825903
6177.32 25.6243 0.890077 -1.580151
6178.74 27.2887 0.913514 0.091122
6180.16 26.5775 0.932813 -0.611219
6181.59 26.7484 0.955253 -0.431507
6183.01 26.758 0.954826 -0.412983
6184.43 26.3394 0.925177 -0.822409
6185.86 26.3997 0.897715 -0.761517
6187.28 27.1091 0.91671 -0.043161
6188.71 26.9891 0.92696 -0.154377
6190.13 26.6625 0.93067 -0.480976
6191.56 26.2477 0.9134 -0.887009
6192.98 26.4833 0.92907 -0.642719
6194.41 27.3434 0.940654 0.217381
6195.84 27.2601 0.937907 0.14258
6197.26 26.355 0.91693 -0.759792
6198.69 26.9382 0.923487 -0.176592
6200.12 27.2809 0.938642 0.174576
6201.55 26.7602 0.942006 -0.337551
6202.97 26.275 0.935479 -0.814051
6204.4 26.7029 0.946751 -0.377483
6205.83 27.677 0.958689 0.602661
6207.26 27.4025 0.94492 0.33737
6208.69 28.1565 0.951075 1.100672
6210.12 28.0863 0.969559 1.039865
6211.55 26.8198 0.976226 -0.217213
6212.98 28.3265 0.97462 1.298927
6214.41 27.5879 0.963818 0.569813
6215.84 27.1312 0.958662 0.119827
6217.27 27.2276 0.965366 0.216227
6218.71 27.3038 0.954544 0.302673
6220.14 27.442 0.963116 0.451147
6221.57 28.2481 0.970289 1.267727
6223.0 28.693 0.985301 1.723288
6224.44 28.3085 0.995787 1.349218
6225.87 27.6405 0.991451 0.691774
6227.3 27.5103 0.979851 0.572134
6228.74 27.535 0.957506 0.607597
6230.17 26.5903 0.941296 -0.326528
6231.61 27.0302 0.943976 0.113371
6233.04 26.8716 0.926816 -0.034473
6234.48 27.3167 0.953593 0.416302
6235.91 28.2623 0.997668 1.361902
6237.35 28.5854 1.0595 1.685001
6238.78 27.7944 1.078821 0.892481
6240.22 25.9649 1.037685 -0.937019
6241.66 26.5769 0.991198 -0.3323
6243.1 26.4011 0.979978 -0.497797
6244.53 26.6179 0.993857 -0.270699
6245.97 27.9965 1.01566 1.118326
6247.41 27.3243 0.986043 0.455673
6248.85 29.5223 0.99681 2.662416
6250.29 27.2971 0.948415 0.446417
6251.73 26.3269 0.960465 -0.514591
6253.17 27.3259 0.972976 0.493937
6254.61 27.5809 0.98928 0.758797
6256.05 27.5392 0.961721 0.717096
6257.49 27.8798 0.986551 1.067598
6258.93 30.3584 1.061474 3.546198
6260.37 31.0094 1.12033 4.197197
6261.81 29.8742 1.0952 3.061998
6263.25 28.6352 1.020747 1.822998
6264.7 27.1215 0.968912 0.314087
6266.14 27.8134 0.954935 1.0112
6267.58 26.9847 0.958724 0.185465
6269.02 26.8768 0.942361 0.077736
6270.47 26.0291 0.939044 -0.764982
6271.91 24.881 0.93216 -1.910191
6273.36 28.0771 0.958896 1.290758
6274.8 26.8828 0.911342 0.101233
6276.25 26.7211 0.918119 -0.055613
6277.69 26.9311 0.946141 0.159283
6279.14 26.129 0.965393 -0.638138
6280.58 25.6069 0.940072 -1.155355
6282.03 27.2312 0.934225 0.473951
6283.48 25.9951 0.928721 -0.762581
6284.92 27.0412 0.923565 0.280733
6286.37 26.9607 0.919115 0.195459
6287.82 26.867 0.947287 0.097235
6289.27 28.1559 1.055391 1.393234
6290.71 27.3645 1.086645 0.610949
6292.16 27.2641 1.024352 0.508623
6293.61 28.0628 0.953792 1.316664
6295.06 26.7563 0.905565 0.016472
6296.51 25.9003 0.892694 -0.829763
6297.96 26.9476 0.937297 0.226837
6299.41 25.9223 0.979437 -0.792347
6300.86 27.5877 1.116822 0.880573
6302.31 29.7608 1.293 3.063238
6303.76 29.4693 1.37588 2.779507
6305.22 27.9912 1.315062 1.301407
6306.67 27.1047 1.124048 0.415413
6308.12 26.167 1.002052 -0.512644
6309.57 27.4124 0.99209 0.73423
6311.03 27.0896 0.977531 0.417761
6312.48 25.7967 0.892669 -0.868191
6313.93 24.527 0.826173 -2.13789
6315.39 24.8594 0.818058 -1.805084
6316.84 28.0112 0.870692 1.355652
6318.3 27.8402 0.871386 1.193565
6319.75 27.0265 0.870105 0.388683
6321.21 26.9721 0.880864 0.336248
6322.66 28.4486 0.943191 1.821705
6324.12 29.4488 0.936853 2.830687
6325.57 26.6478 0.876243 0.029688
6327.03 27.0782 0.852298 0.468739
6328.49 26.9808 0.865867 0.380051
6329.95 27.1991 0.882128 0.593758
6331.4 27.7506 0.896538 1.143742
6332.86 27.0976 0.901827 0.490742
6334.32 25.3357 0.88231 -1.27116
6335.78 26.9927 0.871872 0.387608
6337.24 25.005 0.827515 -1.600094
6338.7 23.4986 0.782776 -3.106493
6340.16 23.6421 0.777463 -2.962994
6341.62 23.8212 0.765756 -2.78215
6343.08 24.485 0.794745 -2.12291
6344.54 25.4893 0.808611 -1.11861
6346.0 24.3822 0.779066 -2.226057
6347.46 24.279 0.771521 -2.336922
6348.92 25.2525 0.795807 -1.369614
6350.38 25.8671 0.819708 -0.75515
6351.85 26.3148 0.852446 -0.298675
6353.31 24.7655 0.849817 -1.839252
6354.77 25.7947 0.844163 -0.801208
6356.24 26.4397 0.851812 -0.147451
6357.7 25.8524 0.857878 -0.734751
6359.16 25.9617 0.875541 -0.616726
6360.63 27.2016 0.90535 0.631964
6362.09 25.8542 0.886192 -0.706923
6363.56 25.6521 0.848116 -0.901638
6365.02 25.794 0.905076 -0.759228
6366.49 26.1926 0.994983 -0.360628
6367.96 26.8462 1.004786 0.301308
6369.42 26.2485 0.91808 -0.287748
6370.89 25.5989 0.84637 -0.934883
6372.36 25.9758 0.8327 -0.548618
6373.82 26.3925 0.817568 -0.131918
6375.29 26.4002 0.82085 -0.124218
6376.76 26.3859 0.840173 -0.138517
6378.23 26.6808 0.850237 0.147016
6379.7 26.6513 0.838037 0.126883
6381.17 25.608 0.831442 -0.907763
6382.63 26.6955 0.86787 0.188448
6384.1 27.6894 0.894839 1.190554
6385.57 26.4567 0.839205 -0.036226
6387.05 26.6292 0.831203 0.136274
6388.52 27.048 0.866771 0.564381
6389.99 26.576 0.872918 0.092381
6391.46 25.2016 0.883252 -1.282021
6392.93 24.9039 0.85973 -1.570423
6394.4 25.7091 0.832801 -0.761736
6395.88 24.4468 0.793548 -2.033726
6397.35 24.5141 0.789507 -1.959671
6398.82 25.59 0.812782 -0.884043
6400.3 25.6441 0.821845 -0.830101
6401.77 26.0326 0.825216 -0.433989
6403.24 27.3781 0.832547 0.914337
6404.72 26.4066 0.824523 -0.054245
6406.19 25.0437 0.812045 -1.417147
6407.67 25.9169 0.816072 -0.534136
6409.14 25.8503 0.81189 -0.594622
6410.62 25.2853 0.810643 -1.157679
6412.1 25.2952 0.808883 -1.141953
6413.57 24.2113 0.788074 -2.21611
6415.05 26.5259 0.824635 0.100588
6416.53 25.9422 0.822751 -0.478727
6418.0 25.2923 0.807972 -1.118601
6419.48 25.625 0.825348 -0.779427
6420.96 25.1985 0.833209 -1.205927
6422.44 23.892 0.824736 -2.509052
6423.92 24.8949 0.830945 -1.501369
6425.4 26.0168 0.831677 -0.379469
6426.88 24.9249 0.808965 -1.471369
6428.36 24.115 0.787065 -2.271645
6429.84 25.3584 0.807653 -1.01856
6431.32 25.2733 0.822946 -1.103661
6432.8 25.1049 0.83187 -1.265879
6434.28 25.1969 0.819279 -1.164803
6435.76 25.6349 0.828617 -0.726803
6437.24 25.1746 0.804203 -1.187101
6438.73 24.0325 0.791624 -2.329203
6440.21 24.933 0.806171 -1.428701
6441.69 25.4915 0.815166 -0.870201
6443.18 25.6317 0.813048 -0.722198
6444.66 25.4449 0.806709 -0.903929
6446.14 25.7945 0.811863 -0.554329
6447.63 26.3508 0.813398 0.00197
6449.11 25.2138 0.811994 -1.135029
6450.6 25.2561 0.815939 -1.093334
6452.08 25.3178 0.813524 -1.02743
6453.57 26.5154 0.830661 0.179806
6455.06 26.4741 0.831051 0.148161
6456.54 24.902 0.808251 -1.414118
6458.03 26.6901 0.824508 0.383816
6459.52 25.7701 0.82559 -0.526369
6461.0 27.0263 0.838839 0.729832
6462.49 25.6101 0.829001 -0.683077
6463.98 24.0348 0.817063 -2.261112
6465.47 25.8157 0.85902 -0.470482
6466.96 26.0146 0.883863 -0.271582
6468.45 26.6144 0.882416 0.328219
6469.94 26.2436 0.874981 -0.042582
6471.43 25.6445 0.847637 -0.641443
6472.92 25.5492 0.853129 -0.74083
6474.41 26.3672 0.879344 0.077171
6475.9 27.4139 0.853268 1.123871
6477.39 24.3294 0.800126 -1.96063
6478.88 27.1312 0.807603 0.850695
6480.37 28.929 0.854501 2.648495
6481.87 28.8728 0.859368 2.592295
6483.36 29.1786 0.865005 2.898094
6484.85 26.3837 0.833342 0.103193
6486.34 25.5294 0.802433 -0.751106
6487.84 26.6272 0.805669 0.346693
6489.33 26.7743 0.801991 0.493793
6490.83 26.3841 0.805818 0.103594
6492.32 26.6203 0.824013 0.330833
6493.82 26.0691 0.819722 -0.225273
6495.31 25.8698 0.79934 -0.419666
6496.81 24.9146 0.773925 -1.370094
6498.3 24.3222 0.782543 -1.95743
6499.8 24.8648 0.840054 -1.40991
6501.3 25.4442 0.902974 -0.832977
6502.79 24.6973 0.888596 -1.584841
6504.29 26.7668 0.860249 0.489622
6505.79 26.9277 0.86334 0.646116
6507.29 27.3606 0.882389 1.083988
6508.79 27.6943 0.860243 1.422823
6510.28 26.6082 0.813856 0.341984
6511.78 26.3427 0.798861 0.081686
6513.28 26.6693 0.800484 0.413691
6514.78 26.3573 0.796991 0.106966
6516.28 26.3425 0.800697 0.097
6517.78 26.0874 0.799011 -0.152634
6519.29 25.5817 0.788576 -0.663801
6520.79 26.616 0.796837 0.375965
6522.29 25.3961 0.782641 -0.849402
6523.79 25.8049 0.792242 -0.435629
6525.29 25.7604 0.80022 -0.474653
6526.8 24.9132 0.779513 -1.316847
6528.3 24.8405 0.783525 -1.384146
6529.8 25.7306 0.793663 -0.48959
6531.31 26.8821 0.816644 0.660944
6532.81 26.5745 0.838919 0.358728
6534.31 26.5239 0.874465 0.312509
6535.82 27.101 0.907573 0.885229
6537.32 26.9135 0.896528 0.692345
6538.83 25.407 0.841844 -0.819696
6540.34 25.5512 0.799905 -0.669954
6541.84 25.9611 0.780845 -0.255695
6543.35 25.1147 0.794685 -1.096689
6544.85 24.6092 0.817317 -1.597963
6546.36 26.0841 0.860449 -0.119299
6547.87 27.3362 0.860236 1.13806
6549.38 25.7947 0.814382 -0.399523
6550.89 26.2952 0.823114 0.106113
6552.39 26.8902 0.825067 0.705095
6553.9 27.0444 0.85472 0.863281
6555.41 27.8598 0.941434 1.678682
6556.92 28.3792 0.988163 2.198082
6558.43 26.775 0.935532 0.584736
6559.94 26.9812 0.863714 0.790936
6561.45 27.568 0.834145 1.368494
6562.96 27.232 0.841487 1.023142
6564.48 26.7757 0.855348 0.557522
6565.99 27.4278 0.867897 1.199791
6567.5 27.1312 0.857316 0.903192
6569.01 26.3719 0.828531 0.142706
6570.52 26.8225 0.833229 0.593306
6572.04 27.7982 0.849476 1.565598
6573.55 27.5521 0.845435 1.309977
6575.06 26.3266 0.819488 0.076111
6576.58 26.3308 0.816551 0.077248
6578.09 24.7105 0.816295 -1.552954
6579.61 26.0094 0.857247 -0.264057
6581.12 27.5049 0.920091 1.229786
6582.64 25.6636 0.876731 -0.621868
6584.15 25.7 0.848794 -0.585468
6585.67 25.4757 0.832674 -0.800724
6587.19 25.5037 0.835629 -0.772724
6588.7 26.6278 0.841621 0.351376
6590.22 27.1504 0.840648 0.873976
6591.74 26.1579 0.837455 -0.115
6593.26 26.1282 0.819034 -0.134659
6594.78 25.1109 0.804677 -1.155926
6596.29 24.1821 0.784667 -2.084726
6597.81 24.3721 0.777783 -1.898211
6599.33 25.6032 0.808682 -0.669676
6600.85 26.9327 0.845393 0.656982
6602.37 27.2302 0.85049 0.961479
6603.89 26.191 0.826001 -0.067259
6605.41 25.3861 0.811542 -0.872158
6606.93 25.7576 0.846689 -0.500658
6608.46 26.2737 0.846889 0.025545
6609.98 26.4058 0.827782 0.157644
6611.5 27.3172 0.823518 1.078573
6613.02 25.6155 0.794161 -0.623127
6614.55 26.8638 0.814701 0.629963
6616.07 26.7661 0.820613 0.542887
6617.59 25.3531 0.804815 -0.88077
6619.12 25.9195 0.820886 -0.325159
6620.64 27.1935 0.824736 0.944565
6622.17 26.3459 0.80958 0.087395
6623.69 26.5941 0.818469 0.335596
6625.22 26.9486 0.82881 0.690096
6626.74 26.2937 0.829149 0.032373
6628.27 25.4311 0.825539 -0.829781
6629.79 26.2219 0.837156 -0.03898
6631.32 27.7757 0.84818 1.512526
6632.85 26.1266 0.835276 -0.137848
6634.37 26.2895 0.830713 0.014797
6635.9 26.0606 0.824184 -0.224579
6637.43 23.4392 0.779085 -2.84598
6638.96 26.0005 0.804076 -0.284679
6640.49 26.5749 0.81918 0.279222
6642.02 25.9284 0.825047 -0.366327
6643.55 25.6564 0.848717 -0.641329
6645.08 26.2952 0.827521 -0.012247
6646.61 26.8497 0.812152 0.532644
6648.14 25.9162 0.79455 -0.400856
6649.67 26.389 0.799453 0.070406
6651.2 27.2304 0.819229 0.902224
6652.73 27.1355 0.809503 0.807323
6654.26 26.0822 0.797338 -0.245977
6655.8 25.9221 0.800435 -0.406076
6657.33 28.1177 0.816464 1.789524
6658.86 26.2709 0.807671 -0.064264
6660.4 26.0753 0.806617 -0.269455
6661.93 26.8326 0.820218 0.483139
6663.46 27.3369 0.834996 0.982401
6665.0 27.6288 0.83676 1.269756
6666.53 27.462 0.832692 1.098488
6668.07 26.8935 0.815337 0.525374
6669.6 26.1519 0.807489 -0.220842
6671.14 26.3179 0.808051 -0.059439
6672.68 27.1672 0.819782 0.785303
6674.21 27.528 0.830003 1.141592
6675.75 27.0098 0.818718 0.622681
6677.29 26.8007 0.81582 0.409092
6678.82 26.3707 0.800266 -0.025625
6680.36 25.6525 0.806651 -0.748173
6681.9 24.8727 0.765471 -1.525679
6683.44 24.4532 0.771097 -1.943634
6684.98 24.7332 0.763057 -1.668104
6686.52 24.8239 0.760429 -1.572933
6688.06 25.2622 0.770248 -1.139105
6689.6 26.3761 0.777623 -0.020733
6691.14 26.568 0.779494 0.166151
6692.68 25.862 0.773104 -0.54431
6694.22 27.715 0.796258 1.303516
6695.76 27.7685 0.803121 1.352613
6697.3 26.5829 0.799563 0.17115
6698.85 26.5615 0.798975 0.146175
6700.39 26.995 0.796543 0.575249
6701.93 26.5953 0.799136 0.175549
6703.48 27.0783 0.802989 0.662909
6705.02 27.4798 0.81492 1.07423
6706.56 25.9194 0.808275 -0.48617
6708.11 26.5758 0.805428 0.180058
6709.65 27.7277 0.821604 1.341713
6711.2 26.6503 0.809267 0.274307
6712.74 27.6662 0.803531 1.300371
6714.29 27.7483 0.796142 1.387827
6715.83 27.7322 0.791842 1.371727
6717.38 27.9842 0.810114 1.625902
6718.93 27.867 0.809607 1.519285
6720.48 27.6584 0.797447 1.316933
6722.02 29.0173 0.808352 2.686499
6723.57 28.9801 0.811556 2.642979
6725.12 29.6513 0.82992 3.305023
6726.67 30.0201 0.831908 3.673822
6728.22 29.3692 0.817697 3.022923
6729.77 29.2482 0.817913 2.901922
6731.32 31.6706 0.853045 5.324324
6732.87 32.3586 0.875108 6.001766
6734.42 34.0925 0.90597 7.746222
6735.97 39.8164 0.988424 13.48051
6737.52 44.1946 1.068909 17.86751
6739.07 42.2148 1.051874 15.89798
6740.62 40.1254 1.020825 13.81894
6742.17 40.8072 1.021355 14.5063
6743.73 41.0962 1.036518 14.80556
6745.28 42.4338 1.057263 16.14934
6746.83 45.6577 1.119868 19.37914
6748.39 52.8803 1.251823 26.60284
6749.94 69.2402 1.516915 42.96274
6751.5 87.8186 1.807772 61.55238
6753.05 90.7136 1.882095 64.44738
6754.61 73.1032 1.540424 46.83698
6756.16 52.2611 1.220329 25.99488
6757.72 44.6876 1.075701 18.42138
6759.27 41.4835 1.020958 15.21183
6760.83 39.356 0.982965 13.08433
6762.39 38.1527 0.966443 11.89198
6763.94 38.2703 0.972571 12.01341
6765.5 37.5393 0.95114 11.28241
6767.06 35.8721 0.933976 9.625923
6768.62 38.3308 0.96775 12.09503
6770.18 40.6891 1.042799 14.44292
6771.74 53.1837 1.206627 26.92681
6773.3 61.9377 1.349733 35.68081
6774.85 57.6037 1.275992 31.34681
6776.42 44.3101 1.051845 18.05321
6777.98 33.0647 0.889777 6.809368
6779.54 30.5124 0.827889 4.26166
6781.1 29.4572 0.819928 3.206459
6782.66 28.092 0.796574 1.847332
6784.22 27.4715 0.788108 1.230955
6785.78 27.6241 0.787655 1.39399
6787.35 26.9096 0.78008 0.690187
6788.91 27.4807 0.798591 1.272251
6790.47 28.3848 0.804422 2.187204
6792.04 28.119 0.805661 1.931585
6793.6 27.2927 0.776195 1.115383
6795.16 27.344 0.778291 1.17646
6796.73 27.6399 0.782213 1.475601
6798.29 25.9161 0.758039 -0.238686
6799.86 26.0038 0.753286 -0.141487
6801.43 25.8402 0.766352 -0.295618
6802.99 26.1384 0.789344 0.011742
6804.56 27.7114 0.822412 1.594278
6806.13 26.4109 0.786821 0.293987
6807.69 26.6807 0.776094 0.57148
6809.26 26.5479 0.771409 0.443192
6810.83 27.3842 0.797975 1.274967
6812.4 28.3251 0.828793 2.215666
6813.97 27.2682 0.822312 1.158947
6815.54 25.5851 0.793206 -0.524153
6817.11 26.0775 0.779849 -0.031754
6818.68 25.8351 0.776317 -0.274153
6820.25 25.5835 0.783212 -0.525753
6821.82 25.6278 0.783982 -0.472565
6823.39 25.4064 0.764112 -0.684719
6824.96 25.5239 0.772933 -0.560871
6826.53 26.4547 0.801744 0.375929
6828.1 25.1928 0.809275 -0.885971
6829.67 26.185 0.851028 0.106228
6831.25 28.3659 0.962451 2.287128
6832.82 27.6039 0.996513 1.51543
6834.39 26.0221 0.952917 -0.06637
6835.97 25.8054 0.94511 -0.28307
6837.54 26.7018 0.964674 0.610866
6839.12 25.8826 0.89126 -0.208332
6840.69 25.4779 0.804964 -0.613033
6842.27 27.0862 0.807184 0.994348
6843.84 25.5586 0.798876 -0.527771
6845.42 26.8977 0.825176 0.819841
6846.99 26.2749 0.813258 0.197043
6848.57 25.9629 0.804849 -0.105261
6850.15 26.9196 0.799284 0.857769
6851.73 27.1782 0.795361 1.116369
6853.3 26.2229 0.784479 0.154291
6854.88 26.5014 0.77333 0.432791
6856.46 25.1465 0.768649 -0.914175
6858.04 25.4055 0.781128 -0.655174
6859.62 26.1561 0.815736 0.095425
6861.2 25.1593 0.777416 -0.901262
6862.78 26.6181 0.785633 0.55493
6864.36 27.9518 0.862146 1.896584
6865.94 26.0757 0.988753 0.029909
6867.52 26.6821 1.038684 0.637077
6869.1 27.9038 0.969203 1.859398
6870.68 25.6237 0.928661 -0.416002
6872.27 25.7409 0.952614 -0.298801
6873.85 26.9274 0.991358 0.891764
6875.43 26.4765 0.953467 0.440863
6877.02 26.2168 0.889119 0.184353
6878.6 26.7607 0.850071 0.728252
6880.18 26.647 0.834174 0.614552
6881.77 25.4581 0.816979 -0.5635
6883.35 26.1557 0.844157 0.137404
6884.94 27.4117 0.882368 1.404526
6886.52 26.0592 0.845353 0.063757
6888.11 24.6591 0.825114 -1.324739
6889.7 25.9211 0.860807 -0.05467
6891.28 25.2778 0.868122 -0.692967
6892.87 26.4454 0.902088 0.474634
6894.46 26.642 0.897809 0.671234
6896.04 26.6343 0.857376 0.659721
6897.63 26.262 0.81482 0.292555
6899.22 25.256 0.795681 -0.701117
6900.81 25.8721 0.813797 -0.072981
6902.4 25.965 0.86051 0.032314
6903.99 27.2698 0.892786 1.349474
6905.58 27.6267 0.866784 1.717442
6907.17 28.0792 0.85134 2.178457
6908.76 31.26 0.888063 5.362194
6910.35 34.6551 0.92181 8.768492
6911.94 32.8471 0.897961 6.96084
6913.53 29.4938 0.887437 3.612228
6915.12 26.8192 0.862274 0.945742
6916.72 25.6906 0.869483 -0.192945
6918.31 26.0612 1.000302 0.166813
6919.9 26.9312 1.004974 1.025711
6921.5 28.6137 0.841758 2.697126
6923.09 30.2046 0.891689 4.279877
6924.68 33.2627 0.990497 7.336557
6926.28 34.3469 1.033075 8.420759
6927.87 30.3696 0.951497 4.443459
6929.47 27.3968 0.868587 1.464531
6931.07 26.2679 0.811088 0.335632
6932.66 24.9379 0.762928 -0.986965
6934.26 25.3565 0.750701 -0.557896
6935.85 25.7977 0.756656 -0.105743
6937.45 24.4567 0.757408 -1.436024
6939.05 25.6817 0.773652 -0.200268
6940.65 25.4639 0.790009 -0.407942
6942.25 26.0349 0.823893 0.163059
6943.84 25.0057 0.872965 -0.869993
6945.44 23.8201 0.794931 -2.055592
6947.04 24.9198 0.761116 -0.955893
6948.64 24.5425 0.759893 -1.328541
6950.24 24.058 0.873611 -1.802818
6951.84 25.5998 0.995663 -0.257235
6953.44 26.5037 0.969081 0.648666
6955.05 25.7753 0.87122 -0.072763
6956.65 25.1036 0.808516 -0.74048
6958.25 25.7077 0.796379 -0.136379
6959.85 26.3857 0.781083 0.543453
6961.45 26.5235 0.78156 0.684059
6963.06 25.4045 0.749795 -0.430243
6964.66 24.4333 0.774039 -1.397272
6966.27 24.8516 0.776523 -0.980051
6967.87 24.9211 0.784593 -0.915186
6969.47 26.7929 0.798222 0.961248
6971.08 25.8531 0.804167 0.026083
6972.68 25.6532 0.806851 -0.169836
6974.29 26.1534 0.806436 0.335127
6975.9 25.1974 0.76921 -0.616777
6977.5 25.9063 0.768172 0.088026
6979.11 25.0504 0.78557 -0.763273
6980.72 25.2436 0.823289 -0.567518
6982.32 25.0483 0.845094 -0.76082
6983.93 24.3593 0.802348 -1.445623
6985.54 24.8027 0.76825 -0.997997
6987.15 25.9245 0.761915 0.127979
6988.76 25.3273 0.757393 -0.473398
6990.37 25.2985 0.762187 -0.506393
6991.98 25.7014 0.760567 -0.107805
6993.59 25.1283 0.751069 -0.676594
6995.2 24.274 0.74673 -1.526716
6996.81 26.2835 0.774952 0.478607
6998.42 25.3563 0.785827 -0.452635
7000.03 25.2431 0.77103 -0.565836
7001.64 26.3403 0.776888 0.531364
7003.26 26.6748 0.777393 0.861559
7004.87 25.2399 0.770296 -0.577282
7006.48 24.4863 0.786417 -1.334915
7008.1 27.2412 0.820348 1.415615
7009.71 26.8583 0.819719 1.028711
7011.32 25.5309 0.788912 -0.294685
7012.94 25.4517 0.803225 -0.369515
7014.55 25.6952 0.811176 -0.130024
7016.17 25.4582 0.823061 -0.363014
7017.78 26.303 0.797396 0.477776
7019.4 25.421 0.784033 -0.408588
7021.02 25.6181 0.758309 -0.207125
7022.63 26.3057 0.792235 0.484766
7024.25 25.1977 0.76606 -0.619219
7025.87 25.2055 0.758934 -0.603212
7027.49 25.4031 0.784416 -0.397251
7029.1 25.0681 0.776668 -0.723875
7030.72 25.1167 0.79746 -0.670881
7032.34 25.2959 0.762163 -0.487474
7033.96 25.2153 0.759374 -0.56378
7035.58 26.2304 0.769413 0.460123
7037.2 25.8371 0.769447 0.075581
7038.82 24.9247 0.770275 -0.829557
7040.44 24.949 0.741939 -0.805258
7042.06 25.1379 0.766523 -0.619535
7043.69 24.8682 0.758953 -0.879564
7045.31 26.3209 0.793134 0.582745
7046.93 25.9573 0.78532 0.228472
7048.55 26.1043 0.792011 0.384533
7050.18 26.0998 0.80755 0.389275
7051.8 26.019 0.832917 0.312899
7053.42 26.3092 0.837764 0.611734
7055.05 25.3065 0.82637 -0.382393
7056.67 24.7795 0.797881 -0.906923
7058.3 23.8732 0.768892 -1.804379
7059.92 24.293 0.773793 -1.377081
7061.55 25.303 0.781338 -0.364086
7063.18 25.0132 0.764453 -0.650055
7064.8 24.9381 0.768066 -0.725155
7066.43 25.0245 0.783992 -0.636562
7068.06 25.1864 0.797001 -0.465239
7069.68 25.1187 0.804971 -0.537699
7071.31 25.4803 0.802836 -0.171337
7072.94 26.5093 0.802909 0.862183
7074.57 26.3842 0.793164 0.746315
7076.2 26.389 0.796291 0.760414
7077.83 26.5309 0.79264 0.91017
7079.46 24.2936 0.767873 -1.317514
7081.09 23.2517 0.762624 -2.351496
7082.72 26.4635 0.796733 0.862514
7084.35 26.0546 0.795285 0.463224
7085.98 25.9007 0.79828 0.313524
7087.61 24.6501 0.782093 -0.927008
7089.25 25.0401 0.776312 -0.527088
7090.88 25.9992 0.788309 0.434614
7092.51 25.1866 0.801131 -0.368626
7094.14 26.2448 0.807426 0.694124
7095.78 26.8236 0.798209 1.277184
7097.41 25.9144 0.80042 0.376537
7099.05 26.4343 0.802428 0.896437
7100.68 27.3966 0.818875 1.859772
7102.32 26.2883 0.790468 0.759901
7103.95 25.9653 0.767833 0.436901
7105.59 25.7627 0.760066 0.242781
7107.22 25.6092 0.763904 0.097595
7108.86 26.0897 0.772282 0.586363
7110.5 26.2584 0.785403 0.763409
7112.14 25.1434 0.764147 -0.343334
7113.77 24.6618 0.766954 -0.818483
7115.41 25.5458 0.781711 0.073885
7117.05 26.5756 0.79229 1.112181
7118.69 25.7578 0.76226 0.302923
7120.33 25.3223 0.77255 -0.123789
7121.97 26.7303 0.789945 1.292978
7123.61 24.5294 0.759142 -0.907923
7125.25 25.2681 0.75624 -0.165106
7126.89 24.4319 0.755364 -0.992018
7128.53 24.155 0.749359 -1.268917
7130.17 25.0384 0.769506 -0.37616
7131.81 25.1417 0.757015 -0.27286
7133.46 25.4369 0.758368 0.031727
7135.1 26.3628 0.785219 0.959145
7136.74 26.6005 0.786721 1.206045
7138.39 26.3811 0.801118 0.995598
7140.03 26.012 0.766535 0.630184
7141.67 25.5364 0.763976 0.15814
7143.32 25.322 0.752207 -0.051168
7144.96 25.019 0.763786 -0.350613
7146.61 25.355 0.784445 -0.009968
7148.25 25.6204 0.800505 0.259058
7149.9 25.7765 0.814209 0.41905
7151.55 26.0152 0.80626 0.659481
7153.19 25.4302 0.773309 0.070663
7154.84 26.1366 0.774628 0.773537
7156.49 25.9135 0.758953 0.553963
7158.14 25.7472 0.760966 0.391457
7159.79 26.8199 0.782771 1.468685
7161.43 28.1364 0.8166 2.78886
7163.08 27.2746 0.793796 1.931564
7164.73 26.4923 0.776705 1.152826
7166.38 26.0189 0.78079 0.682901
7168.03 25.7213 0.800041 0.38975
7169.68 26.2374 0.835381 0.909351
7171.33 27.4339 0.855592 2.110086
7172.99 27.0074 0.82519 1.687124
7174.64 26.9858 0.802278 1.668974
7176.29 25.8008 0.790698 0.488205
7177.94 25.0554 0.795721 -0.253653
7179.6 25.0213 0.78945 -0.283672
7181.25 24.5249 0.758281 -0.784153
7182.9 24.3708 0.752823 -0.938253
7184.56 25.3224 0.767112 0.020857
7186.21 26.9469 0.802862 1.651587
7187.87 26.7409 0.807484 1.45327
7189.52 26.1089 0.808294 0.82127
7191.18 27.0969 0.800061 1.802938
7192.83 25.881 0.784532 0.587038
7194.49 25.5622 0.775397 0.268238
7196.15 25.908 0.784079 0.614039
7197.8 25.9815 0.777649 0.695128
7199.46 25.7411 0.768154 0.461391
7201.12 25.8681 0.765689 0.595375
7202.78 26.4283 0.784994 1.149193
7204.44 25.7334 0.778489 0.461462
7206.1 25.7077 0.772377 0.442888
7207.75 25.395 0.759693 0.134527
7209.41 25.0831 0.756612 -0.17137
7211.07 25.8835 0.762415 0.62903
7212.74 26.0749 0.770394 0.815437
7214.4 25.3733 0.760442 0.113838
7216.06 25.1775 0.745377 -0.079777
7217.72 25.4217 0.745155 0.171227
7219.38 25.3159 0.753626 0.072189
7221.04 25.1654 0.761113 -0.078312
7222.71 26.5551 0.776436 1.313173
7224.37 25.4 0.761948 0.158073
7226.03 25.6611 0.75884 0.416124
7227.7 25.7092 0.756151 0.467672
7229.36 25.2571 0.751173 0.00881
7231.03 25.5895 0.754869 0.341211
7232.69 24.8642 0.758135 -0.384088
7234.36 26.1005 0.791497 0.852211
7236.02 27.2426 0.837039 1.995941
7237.69 27.057 0.843031 1.814753
7239.36 25.372 0.842065 0.136915
7241.02 24.1921 0.924603 -1.041172
7242.69 27.2649 1.105279 2.031628
7244.36 28.0167 1.233781 2.790508
7246.03 25.3959 1.259832 0.175428
7247.7 25.6253 1.211337 0.408724
7249.37 27.4798 1.114979 2.270435
7251.03 26.2308 0.959668 1.022106
7252.7 26.9646 0.865776 1.760025
7254.37 26.4518 0.839974 1.247225
7256.05 26.0418 0.86788 0.837225
7257.72 25.4759 0.886408 0.271326
7259.39 25.3276 0.864004 0.123026
7261.06 26.0699 0.833492 0.870188
7262.73 25.4896 0.801291 0.289886
7264.4 26.2629 0.797851 1.063187
7266.08 26.3976 0.808523 1.197887
7267.75 25.2818 0.79452 0.089077
7269.42 24.5681 0.795582 -0.617518
7271.1 25.3083 0.802136 0.122683
7272.77 25.0047 0.806022 -0.184345
7274.45 24.898 0.831841 -0.286699
7276.12 24.6731 0.915802 -0.511601
7277.8 25.9931 1.084525 0.802404
7279.47 27.5507 1.267528 2.354694
7281.15 26.3984 1.266461 1.208218
7282.83 24.0334 1.006801 -1.152252
7284.5 23.2288 0.834258 -1.956852
7286.18 23.4757 0.877656 -1.706137
7287.86 26.5843 1.035137 1.402462
7289.54 27.5234 0.965506 2.333408
7291.22 22.5029 0.809694 -2.691891
7292.9 23.3634 0.765236 -1.839586
7294.58 24.6254 0.774703 -0.577585
7296.25 23.9631 0.783523 -1.239885
7297.94 24.6215 0.847957 -0.581486
7299.62 25.7184 0.894807 0.515413
7301.3 24.3948 0.845426 -0.804434
7302.98 24.5251 0.794856 -0.674133
7304.66 24.8054 0.82189 -0.395952
7306.34 24.2459 0.9413 -0.955454
7308.02 24.606 0.970796 -0.603281
7309.71 25.1028 0.863475 -0.114212
7311.39 24.1884 0.801255 -1.023151
7313.07 24.7313 0.80714 -0.48761
7314.76 23.9415 0.822429 -1.277411
7316.44 23.1716 0.913225 -2.046085
7318.13 23.1668 1.139433 -2.052765
7319.81 23.7226 1.209922 -1.497549
7321.5 23.6586 1.075346 -1.553091
7323.18 22.0331 0.913957 -3.170187
7324.87 24.5305 0.83351 -0.672787
7326.56 24.1677 0.800074 -1.035587
7328.25 24.0705 0.798127 -1.128408
7329.93 25.4471 0.870989 0.248192
7331.62 25.194 1.047958 -0.011795
7333.31 24.3621 1.105692 -0.843695
7335.0 24.3253 0.966511 -0.880495
7336.69 23.8004 0.798947 -1.402315
7338.38 24.4832 0.786753 -0.727688
7340.07 25.7101 0.855808 0.492577
7341.76 25.0572 1.033544 -0.152126
7343.45 24.1753 1.341171 -1.029865
7345.14 25.571 1.371844 0.365833
7346.83 22.6609 1.105255 -2.539536
7348.52 22.992 0.875621 -2.200188
7350.21 25.3507 0.807922 0.163744
7351.91 22.7471 0.805504 -2.439856
7353.6 23.5857 0.807687 -1.592649
7355.29 23.1494 0.782996 -2.020628
7356.99 24.0784 0.779361 -1.083374
7358.68 24.4147 0.799872 -0.747074
7360.38 24.1984 0.867903 -0.963373
7362.07 25.1862 0.951902 0.024706
7363.77 24.7205 0.921133 -0.445044
7365.46 24.3215 0.838618 -0.852299
7367.16 24.6812 0.803385 -0.488453
7368.85 24.1559 0.810515 -1.005714
7370.55 22.5645 0.906249 -2.597113
7372.25 22.8117 1.173035 -2.350929
7373.95 26.6754 1.310094 1.51277
7375.64 21.6321 0.977825 -3.530531
7377.34 23.4622 0.844175 -1.69422
7379.04 26.1463 0.857427 0.98506
7380.74 24.948 0.830478 -0.2215
7382.44 24.4442 0.802128 -0.731428
7384.14 25.0963 0.794141 -0.083942
7385.84 24.282 0.778794 -0.89366
7387.54 23.501 0.764645 -1.67466
7389.24 24.0067 0.770234 -1.168959
7390.95 24.3398 0.780728 -0.830896
7392.65 22.9276 0.809811 -2.243095
7394.35 22.6031 0.890179 -2.559336
7396.05 23.7649 0.918948 -1.395119
7397.76 24.5649 0.858975 -0.601492
7399.46 24.0499 0.803556 -1.117256
7401.16 23.8439 0.80117 -1.321831
7402.87 25.3088 0.885157 0.143068
7404.57 25.5694 1.028776 0.403669
7406.28 26.6006 1.129928 1.434868
7407.98 24.606 0.972295 -0.559731
7409.69 22.89 0.79511 -2.275732
7411.4 23.7482 0.773427 -1.417532
7413.1 25.14 0.794319 -0.025732
7414.81 24.7209 0.805164 -0.444832
7416.52 23.6992 0.801801 -1.466532
7418.22 23.6479 0.795072 -1.517832
7419.93 24.2015 0.790844 -0.964232
7421.64 24.4193 0.777357 -0.746431
7423.35 24.2025 0.771136 -0.963232
7425.06 24.5704 0.785211 -0.595331
7426.77 24.273 0.805167 -0.892181
7428.48 24.4721 0.812251 -0.693083
7430.19 24.2828 0.809331 -0.882381
7431.9 24.4928 0.842044 -0.678139
7433.61 25.6309 0.914806 0.453541
7435.33 23.6242 0.870444 -1.561649
7437.04 23.9694 0.793378 -1.225004
7438.75 24.9008 0.799453 -0.295261
7440.46 25.0188 0.882039 -0.177261
7442.18 24.9907 0.941421 -0.205362
7443.89 25.4567 0.894088 0.260637
7445.61 24.7029 0.796728 -0.493162
7447.32 24.8228 0.795814 -0.368824
7449.03 24.5271 0.778808 -0.664524
7450.75 24.902 0.798061 -0.281071
7452.47 25.0966 0.773444 -0.07798
7454.18 24.1658 0.768317 -1.004892
7455.9 26.0409 0.787094 0.874767
7457.62 24.9093 0.785241 -0.252886
7459.33 24.806 0.795955 -0.351761
7461.05 25.2023 0.796059 0.047518
7462.77 24.5809 0.789406 -0.573881
7464.49 23.9199 0.783616 -1.23683
7466.21 25.3449 0.817689 0.188169
7467.93 24.9124 0.814341 -0.244331
7469.65 25.3278 0.848977 0.174555
7471.37 24.3761 0.841836 -0.780617
7473.09 23.5145 0.800895 -1.642218
7474.81 25.6308 0.897762 0.472656
7476.53 25.0922 0.90469 -0.070074
7478.25 26.7606 0.889865 1.598326
7479.97 25.2302 0.858251 0.067692
7481.7 24.9001 0.872665 -0.262407
7483.42 25.951 0.915802 0.788492
7485.14 24.2943 0.891511 -0.870974
7486.86 24.8767 0.891802 -0.288574
7488.59 25.8797 0.875567 0.714426
7490.31 25.2311 0.81756 0.070223
7492.04 24.9809 0.799614 -0.175539
7493.76 24.935 0.788294 -0.217874
7495.49 23.7783 0.780343 -1.375225
7497.22 24.9969 0.793681 -0.165628
7498.94 24.6302 0.799954 -0.53233
7500.67 24.5761 0.773615 -0.58643
7502.4 24.026 0.762528 -1.140972
7504.12 23.9239 0.751674 -1.247377
7505.85 25.3823 0.772684 0.211021
7507.58 23.9764 0.767724 -1.194878
7509.31 24.472 0.76724 -0.694864
7511.04 25.4755 0.77249 0.311562
7512.77 25.8426 0.777914 0.678661
7514.5 25.4317 0.770495 0.267761
7516.23 25.134 0.775205 -0.031506
7517.96 26.3446 0.807318 1.181486
7519.69 25.5164 0.812219 0.353285
7521.42 25.4544 0.809657 0.291285
7523.15 24.7086 0.812292 -0.445816
7524.89 24.0002 0.891628 -1.156456
7526.62 25.6327 1.04587 0.467241
7528.35 25.9313 1.095999 0.763931
7530.09 24.9411 0.987561 -0.224508
7531.82 25.9899 0.91846 0.819729
7533.56 26.691 0.916903 1.516123
7535.29 25.8373 0.902941 0.658003
7537.03 24.9523 0.825381 -0.224293
7538.76 24.1479 0.78385 -1.030449
7540.5 26.5228 0.807674 1.335457
7542.23 25.205 0.822429 0.017656
7543.97 24.3971 0.846173 -0.790243
7545.71 25.6567 0.856272 0.469357
7547.45 25.421 0.799106 0.233656
7549.18 25.853 0.790881 0.661602
7550.92 25.8869 0.783761 0.695501
7552.66 26.4494 0.792088 1.258001
7554.4 26.5032 0.795703 1.303238
7556.14 25.705 0.782629 0.505037
7557.88 25.2102 0.7947 0.01473
7559.62 25.5095 0.843724 0.309538
7561.36 25.4662 0.870464 0.266237
7563.1 24.7922 0.83034 -0.407763
7564.84 25.4202 0.785774 0.211513
7566.59 25.7017 0.779174 0.490673
7568.33 23.7937 0.766165 -1.41466
7570.07 25.7191 0.822429 0.510742
7571.82 24.8149 0.842804 -0.393459
7573.56 24.7992 0.902878 -0.409159
7575.3 25.2973 1.029982 0.088942
7577.05 25.1533 0.981213 -0.050531
7578.79 24.8715 0.86172 -0.336859
7580.54 24.8479 0.773934 -0.364376
7582.28 25.6085 0.773314 0.396223
7584.03 25.5886 0.77255 0.376324
7585.78 25.1733 0.784477 -0.038977
7587.52 24.9078 0.824828 -0.309032
7589.27 25.3474 0.899959 0.135002
7591.02 27.6592 0.905432 2.446486
7592.77 26.491 0.836429 1.27364
7594.51 25.2484 0.793908 0.03104
7596.26 25.823 0.819323 0.599947
7598.01 25.681 0.929186 0.4496
7599.76 22.8902 1.156569 -2.340223
7601.51 23.5859 1.545586 -1.643185
7603.26 26.8526 1.770802 1.628288
7605.01 25.1512 1.733022 -0.06843
7606.77 23.1147 1.599816 -2.104929
7608.52 25.1123 1.590185 -0.108189
7610.27 27.0557 1.51931 1.842035
7612.02 22.1634 1.378333 -3.050264
7613.77 24.3027 1.327429 -0.910965
7615.53 24.4567 1.212624 -0.756966
7617.28 26.0477 1.122243 0.834036
7619.04 28.1202 1.066033 2.906534
7620.79 25.3657 0.987913 0.152035
7622.55 27.2463 0.966596 2.036789
7624.3 26.3059 0.984961 1.092331
7626.06 25.1504 1.052913 -0.071791
7627.81 24.8919 1.104109 -0.330292
7629.57 25.4139 1.134328 0.19171
7631.33 26.5214 1.28508 1.290499
7633.08 26.8103 1.300187 1.579399
7634.84 23.8378 1.167217 -1.384392
7636.6 23.2727 1.035933 -1.958202
7638.36 25.1862 1.028737 -0.044703
7640.12 26.2948 1.019844 1.072609
7641.88 25.6241 0.957089 0.395491
7643.64 27.2027 1.024642 1.974091
7645.4 25.1436 0.992985 -0.082567
7647.16 25.8397 0.963348 0.60881
7648.92 25.8269 0.989614 0.591623
7650.68 25.1071 0.907181 -0.132158
7652.44 26.674 0.92355 1.434742
7654.2 22.7929 0.883042 -2.446358
7655.97 25.1793 0.873261 -0.068316
7657.73 26.4893 0.936968 1.233324
7659.49 25.8222 0.912521 0.566225
7661.26 25.3161 0.865481 0.060123
7663.02 25.4818 0.899759 0.225824
7664.79 25.9084 0.955633 0.657801
7666.55 25.9695 0.9297 0.727369
7668.32 26.2583 0.908217 1.02454
7670.08 26.072 0.879817 0.83824
7671.85 25.8361 0.849351 0.602339
7673.61 26.3385 0.844503 1.101894
7675.38 25.5769 0.827442 0.342884
7677.15 26.3641 0.826049 1.125891
7678.92 26.0311 0.815006 0.792891
7680.69 25.8144 0.826949 0.576191
7682.45 26.4657 0.82244 1.226408
7684.22 26.4149 0.811879 1.175608
7685.99 25.4089 0.806572 0.169607
7687.76 25.3626 0.807497 0.123308
7689.53 25.9478 0.828179 0.702688
7691.3 26.4635 0.898262 1.210169
7693.08 26.664 0.867619 1.410669
7694.85 26.6133 0.842768 1.35997
7696.62 26.2838 0.825556 1.034369
7698.39 26.4971 0.845369 1.243771
7700.16 26.1837 0.853623 0.926256
7701.94 26.7093 0.900192 1.451855
7703.71 27.5447 0.888221 2.287256
7705.49 26.5939 0.84951 1.328348
7707.26 25.7113 0.80869 0.453415
7709.03 25.1583 0.799813 -0.099585
7710.81 25.5902 0.801726 0.328955
7712.59 22.9365 0.816467 -2.324745
7714.36 22.5872 1.032179 -2.674046
7716.14 29.2215 1.344006 3.961605
7717.92 23.0628 1.381636 -2.197096
7719.69 27.4814 1.606596 2.228996
7721.47 27.1178 1.611686 1.865396
7723.25 25.2068 1.180345 -0.049759
7725.03 25.9136 0.906045 0.656294
7726.81 25.198 0.933846 -0.063551
7728.59 25.4311 1.022808 0.16955
7730.36 25.818 0.962144 0.56226
7732.15 25.1678 0.85754 -0.08794
7733.93 25.8222 0.836251 0.572334
7735.71 26.9115 0.868482 1.661634
7737.49 25.734 0.880997 0.484133
7739.27 26.4987 0.877173 1.25749
7741.05 26.5381 0.848571 1.298622
7742.83 26.6472 0.820494 1.416389
7744.62 26.6996 0.851028 1.473242
7746.4 26.8223 0.823451 1.593607
7748.19 27.099 0.830426 1.870308
7749.97 25.5162 0.887409 0.287506
7751.75 24.0873 1.192399 -1.148634
7753.54 28.1866 1.632147 2.959169
7755.32 28.8548 2.022254 3.631838
7757.11 25.206 1.316144 -0.02359
7758.9 26.0226 0.838945 0.793011
7760.68 26.4333 0.875235 1.203711
7762.47 26.8909 1.004014 1.658033
7764.26 26.6165 1.072905 1.379742
7766.05 26.0595 0.974555 0.822741
7767.84 25.8582 0.855254 0.621441
7769.62 25.9527 0.819928 0.707533
7771.41 25.7874 0.806935 0.549143
7773.2 25.1607 0.82728 -0.077557
7774.99 25.2474 0.897842 0.009144
7776.78 26.298 1.009958 1.068247
7778.57 27.139 0.976319 1.917852
7780.37 26.3738 0.890592 1.161215
7782.16 25.2791 0.919951 0.060791
7783.95 28.0135 1.015257 2.804289
7785.74 26.163 0.946103 0.962688
7787.53 24.7281 0.834688 -0.462877
7789.33 26.0303 0.839939 0.839323
7791.12 25.8252 0.857417 0.634222
7792.92 27.4045 0.85814 2.213522
7794.71 23.9801 0.907062 -1.209082
7796.51 25.347 1.275484 0.158413
7798.3 28.1788 1.421215 2.999645
7800.1 27.4009 1.171872 2.227526
7801.89 25.0197 0.859448 -0.151197
7803.69 25.2643 0.80053 0.089285
7805.49 25.5966 0.795724 0.421585
7807.28 24.3453 0.781007 -0.820347
7809.08 24.3519 0.833603 -0.815437
7810.88 26.2748 1.096061 1.105978
7812.68 26.9389 1.141803 1.779348
7814.48 25.1475 1.010286 -0.012053
7816.28 23.4506 0.861528 -1.700129
7818.08 24.8315 0.816178 -0.31044
7819.88 25.5462 0.8755 0.409849
7821.68 23.0726 1.059065 -2.055496
7823.48 21.9665 1.531295 -3.15291
7825.28 28.6638 2.434027 3.546103
7827.08 23.9121 1.844705 -1.19668
7828.89 23.4561 1.146385 -1.643648
7830.69 25.5691 0.825277 0.469351
7832.49 25.0838 0.810175 -0.015814
7834.3 24.44 0.821205 -0.650518
7836.1 24.4928 0.808328 -0.597719
7837.91 24.2068 0.800651 -0.874773
7839.71 24.4093 0.814782 -0.671272
7841.52 23.5882 0.874215 -1.49579
7843.32 24.1218 1.028671 -0.962234
7845.13 28.1202 1.093025 3.043375
7846.93 25.4394 0.961094 0.365137
7848.74 24.1212 0.817137 -0.950474
7850.55 23.081 0.805574 -1.979837
7852.36 23.7636 0.900196 -1.28652
7854.16 23.9544 1.085134 -1.086235
7855.97 21.7463 1.542345 -3.289257
7857.78 27.7424 1.718589 2.718781
7859.59 25.0716 1.231548 0.060549
7861.4 23.6189 0.995787 -1.380266
7863.21 25.2768 1.032077 0.28985
7865.02 26.3927 1.051941 1.418091
7866.83 25.401 0.935679 0.439251
7868.65 24.4551 0.84651 -0.506649
7870.46 23.9618 0.874118 -0.999949
7872.27 23.9882 0.984932 -0.96105
7874.08 24.6235 1.09317 -0.313988
7875.9 24.9988 1.160673 0.061312
7877.71 23.923 0.95074 -1.003164
7879.52 22.6822 0.828753 -2.230614
7881.34 24.0146 0.973636 -0.898212
7883.15 23.2297 1.054183 -1.683113
7884.97 23.0262 1.080933 -1.886614
7886.78 23.7823 0.986177 -1.117184
7888.6 22.311 0.848015 -2.575136
7890.42 23.3487 0.908269 -1.524221
7892.23 25.1806 1.148468 0.320734
7894.05 25.8789 1.275983 1.027523
7895.87 23.4711 1.109532 -1.36784
7897.69 22.2069 0.907895 -2.623968
7899.51 25.888 0.854436 1.063005
7901.33 22.5454 0.803572 -2.273396
7903.15 24.4604 0.799358 -0.358397
7904.97 25.8387 0.822796 1.019903
7906.79 24.6422 0.830558 -0.176596
7908.61 23.9214 0.812383 -0.883644
7910.43 25.3309 0.822707 0.539604
7912.25 23.4536 0.878722 -1.32843
7914.07 21.9652 1.217369 -2.81683
7915.89 24.8813 1.759917 0.098965
7917.72 27.7769 1.69482 3.007992
7919.54 25.8014 1.452698 1.04648
7921.36 21.5724 0.988255 -3.169209
7923.19 24.8704 1.131792 0.128792
7925.01 26.6122 1.309697 1.870592
7926.84 25.651 1.134867 0.923582
7928.66 22.6941 0.864385 -2.01911
7930.49 21.1895 0.801659 -3.509974
7932.32 23.5607 0.917995 -1.13475
7934.14 22.946 1.026517 -1.735859
7935.97 24.99 1.096174 0.322119
7937.8 24.2131 0.980133 -0.4412
7939.63 23.0595 0.831154 -1.580997
7941.45 24.1378 0.827694 -0.502697
7943.28 25.1548 0.849605 0.527914
7945.11 24.9084 0.860893 0.294945
7946.94 25.2332 0.862252 0.632967
7948.77 24.0082 0.859632 -0.578064
7950.6 23.718 0.900605 -0.854271
7952.43 25.0534 1.010181 0.495344
7954.26 24.945 1.0298 0.400873
7956.1 23.6545 0.919395 -0.87582
7957.93 24.0348 0.847695 -0.481945
7959.76 25.3345 0.844109 0.831512
7961.59 25.5525 0.821307 1.062981
7963.43 24.5643 0.835915 0.087648
7965.26 24.0633 1.023695 -0.401495
7967.1 24.443 1.435973 -0.011314
7968.93 26.5936 1.5782 2.152269
7970.76 24.1423 1.294106 -0.286322
7972.6 21.9422 0.972663 -2.480825
7974.44 24.3616 0.868856 -0.060762
7976.27 27.0687 0.866238 2.646338
7978.11 23.9463 0.844548 -0.474701
7979.95 24.2768 0.9495 -0.138069
7981.78 25.2112 1.156921 0.807547
7983.62 24.9724 1.113717 0.579081
7985.46 24.1321 0.986542 -0.272058
7987.3 23.9125 0.865041 -0.495401
7989.14 24.9953 0.883666 0.588053
7990.98 25.0547 0.83638 0.652466
7992.82 23.8791 0.906931 -0.520107
7994.66 23.5786 1.239354 -0.823183
7996.5 25.1584 1.793682 0.766672
7998.34 26.2628 1.778341 1.881092
8000.18 23.3523 1.227822 -1.019552
8002.03 24.2802 0.955794 -0.086153
8003.87 24.6788 0.880448 0.318028
8005.71 24.0389 0.840764 -0.321873
8007.56 23.9831 0.834618 -0.368322
8009.4 24.4538 0.864601 0.106482
8011.24 24.0201 0.85973 -0.321958
8013.09 23.3745 0.84157 -0.963566
8014.93 23.427 0.89026 -0.901922
8016.78 24.0903 1.040292 -0.229549
8018.63 25.1116 1.092824 0.800671
8020.47 25.7707 1.001327 1.464331
8022.32 24.2943 0.89962 -0.00738
8024.17 25.3955 0.91305 1.102346
8026.02 24.7494 0.984279 0.45645
8027.86 24.4586 1.24184 0.16955
8029.71 25.3521 1.586113 1.067011
8031.56 24.3979 1.338903 0.121458
8033.41 24.1939 0.985363 -0.082542
8035.26 25.1804 0.892846 0.903959
8037.11 25.208 0.874562 0.93977
8038.96 24.6083 0.847832 0.348383
8040.81 24.8764 0.837364 0.617468
8042.67 25.7364 0.846807 1.485504
8044.52 24.0502 0.832903 -0.192663
8046.37 24.703 0.853931 0.46534
8048.22 23.9868 0.853489 -0.24304
8050.08 23.8228 0.854467 -0.399137
8051.93 24.5663 0.869138 0.352295
8053.78 23.7162 0.928861 -0.489613
8055.64 25.69 0.977783 1.492403
8057.49 24.3011 0.920419 0.111763
8059.35 23.5149 0.829283 -0.66637
8061.21 23.258 0.823401 -0.915308
8063.06 22.9248 0.910393 -1.244293
8064.92 24.2582 1.117562 0.093464
8066.78 26.698 1.244769 2.537167
8068.63 25.3206 1.057538 1.167955
8070.49 24.1864 0.888919 0.034645
8072.35 24.4781 0.839874 0.326345
8074.21 25.0902 0.837493 0.938446
8076.07 25.2702 0.857291 1.125345
8077.93 25.1829 0.855567 1.045996
8079.79 24.4603 0.860969 0.331226
8081.65 24.6928 0.855291 0.571556
8083.51 25.2997 0.873974 1.186035
8085.37 24.9596 0.862293 0.845791
8087.23 24.1144 0.85927 0.000591
8089.1 25.4389 0.86809 1.332977
8090.96 24.5129 0.844666 0.406977
8092.82 24.5112 0.836444 0.39739
8094.69 25.0391 0.880205 0.930412
8096.55 24.8852 0.928181 0.783892
8098.41 24.7988 0.905383 0.697491
8100.28 25.1144 0.874659 1.009764
8102.14 24.375 0.884821 0.266312
8104.01 23.9112 0.954887 -0.205328
8105.88 24.5563 0.996612 0.439772
8107.74 25.3085 0.963849 1.199812
8109.61 24.7589 0.881555 0.657591
8111.48 24.4579 0.849072 0.364027
8113.35 24.1186 0.850779 0.031691
8115.21 23.8662 0.837928 -0.215408
8117.08 24.9906 0.856433 0.912859
8118.95 25.7961 0.880659 1.714493
8120.82 23.7395 0.855896 -0.341377
8122.69 24.1849 0.841666 0.104023
8124.56 23.004 0.830997 -1.076878
8126.43 23.318 0.85647 -0.760311
8128.31 23.6626 0.865764 -0.422823
8130.18 23.1599 0.853607 -0.933119
8132.05 23.6341 0.851368 -0.455671
8133.92 23.0613 0.841639 -1.031719
8135.8 23.6925 0.861544 -0.397272
8137.67 24.5988 0.854845 0.512182
8139.54 23.9303 0.860141 -0.163714
8141.42 22.6617 0.870418 -1.432314
8143.29 23.2508 0.910446 -0.843214
8145.17 23.1 0.900737 -0.989771
8147.04 23.8058 0.881682 -0.279623
8148.92 22.9929 0.925986 -1.095947
8150.8 22.7156 0.956796 -1.375082
8152.67 23.6515 0.937182 -0.431496
8154.55 23.0604 0.845813 -1.015259
8156.43 22.3116 0.808278 -1.76326
8158.31 23.8334 0.846325 -0.241459
8160.18 23.3707 0.822398 -0.709368
8162.06 23.0828 0.8561 -1.005451
8163.94 24.1175 0.882602 0.029249
8165.82 23.2054 0.899857 -0.882851
8167.7 21.5753 0.872025 -2.512951
8169.59 23.7068 0.872779 -0.389341
8171.47 24.7076 0.876001 0.611458
8173.35 23.1608 0.851469 -0.927744
8175.23 22.3788 0.84472 -1.717474
8177.11 24.8517 0.853962 0.755426
8179.0 24.8334 1.065169 0.744856
8180.88 25.5533 1.111346 1.460417
8182.76 24.2678 0.912183 0.179255
8184.65 23.551 0.943917 -0.537373
8186.53 24.0557 0.902124 -0.032673
8188.42 22.9707 0.906737 -1.125084
8190.3 24.6418 0.965807 0.553863
8192.19 26.1366 0.995353 2.040817
8194.08 25.3569 0.965308 1.253387
8195.96 24.4088 0.95132 0.300709
8197.85 24.329 0.993327 0.21731
8199.74 24.076 0.994978 -0.04015
8201.63 25.7148 0.962924 1.590609
8203.52 24.1244 0.900791 0.007198
8205.4 24.36 0.908097 0.250839
8207.29 24.1924 0.873511 0.091274
8209.18 23.222 0.855918 -0.887161
8211.07 24.8862 0.879065 0.768999
8212.97 22.7365 1.045264 -1.380701
8214.86 24.0747 0.94183 -0.05052
8216.75 23.6465 0.871472 -0.474173
8218.64 23.8475 0.865754 -0.275824
8220.53 25.4097 0.885924 1.278219
8222.43 23.9184 0.86213 -0.215368
8224.32 23.8211 0.843115 -0.312668
8226.21 23.7435 0.84481 -0.382111
8228.11 23.7036 0.85761 -0.41399
8230.0 23.3289 0.873978 -0.795
8231.9 23.1298 0.914469 -1.002281
8233.79 23.6324 0.918751 -0.499682
8235.69 22.0083 0.861413 -2.115599
8237.59 23.1806 0.837523 -0.951483
8239.48 23.5269 0.856316 -0.611258
8241.38 23.5093 0.85659 -0.621883
8243.28 24.1646 0.884225 0.033438
8245.18 24.2123 0.889738 0.089298
8247.08 24.2835 0.893513 0.16046
8248.98 23.9393 0.891703 -0.187569
8250.87 24.0913 0.904701 -0.031742
8252.77 24.5182 0.916214 0.398878
8254.68 24.7617 0.878441 0.642378
8256.58 24.8676 0.877892 0.756197
8258.48 24.6854 0.918433 0.581982
8260.38 24.4156 0.918851 0.313036
8262.28 23.921 0.896189 -0.18305
8264.18 24.1494 0.877068 0.045351
8266.09 24.7809 0.890775 0.685314
8267.99 24.3315 0.878065 0.240488
8269.9 24.3706 0.887874 0.271711
8271.8 24.1645 0.908693 0.074303
8273.7 24.2298 0.869753 0.148594
8275.61 24.5486 0.901629 0.468195
8277.52 23.9101 0.868568 -0.165817
8279.42 22.297 0.966443 -1.78274
8281.33 24.1022 1.184129 0.026911
8283.24 21.4068 1.30281 -2.67717
8285.14 24.1025 1.412422 0.022825
8287.05 25.7414 1.323279 1.670406
8288.96 22.551 1.252156 -1.516321
8290.87 23.7453 1.457282 -0.328028
8292.78 27.8266 1.681672 3.76198
8294.69 26.2936 1.368512 2.232447
8296.6 23.7529 1.026677 -0.308254
8298.51 22.7769 1.066891 -1.284254
8300.42 23.8713 1.460745 -0.193945
8302.33 25.9567 1.731722 1.900322
8304.24 23.3344 1.598368 -0.713081
8306.15 23.5962 1.149219 -0.447481
8308.07 22.4542 1.001548 -1.589481
8309.98 22.3481 0.937903 -1.686737
8311.89 23.9253 0.977498 -0.100756
8313.81 23.5312 1.141703 -0.486196
8315.72 27.3034 1.209948 3.290627
8317.64 25.0081 1.009488 0.994005
8319.55 23.0484 0.919434 -0.960262
8321.47 23.7263 0.96944 -0.273924
8323.39 24.4552 0.959377 0.463518
8325.3 23.4632 0.909147 -0.520355
8327.22 23.6613 0.888 -0.314051
8329.14 24.1639 0.869122 0.194025
8331.05 24.0056 0.884219 0.043795
8332.97 23.7405 0.925307 -0.216888
8334.89 23.6582 0.944616 -0.297464
8336.81 23.3667 0.922006 -0.580568
8338.73 23.8318 0.891111 -0.115299
8340.65 23.5667 0.904738 -0.371813
8342.57 23.7746 0.946777 -0.155693
8344.49 21.9964 1.247754 -1.933891
8346.42 20.0602 2.074814 -3.870092
8348.34 23.5966 3.005416 -0.341913
8350.26 25.1757 2.524697 1.245407
8352.18 21.9419 1.259045 -1.988392
8354.11 21.052 1.143974 -2.878292
8356.03 23.2911 1.410252 -0.630961
8357.95 25.0301 1.52882 1.116459
8359.88 23.9887 1.169205 0.083431
8361.8 22.5944 0.92239 -1.310869
8363.73 23.9065 0.926538 0.00942
8365.66 23.0684 0.950302 -0.823345
8367.58 23.4792 1.166117 -0.404421
8369.51 25.9283 1.313519 2.052769
8371.44 24.4729 1.091494 0.597368
8373.36 23.0493 0.936639 -0.822103
8375.29 24.8173 0.939292 0.953825
8377.22 24.7531 0.942537 0.897476
8379.15 24.0732 0.940338 0.225348
8381.08 23.7932 0.963921 -0.051643
8383.01 22.173 1.341591 -1.664057
8384.94 24.5912 1.554372 0.754543
8386.87 25.9114 1.337847 2.074743
8388.8 24.8798 1.131935 1.044651
8390.73 23.7799 0.918421 -0.050303
8392.67 23.7041 0.934355 -0.120215
8394.6 23.4536 0.930307 -0.370714
8396.53 23.8975 0.933138 0.073185
8398.47 23.7039 0.99319 -0.112944
8400.4 21.899 1.484036 -1.910137
8402.34 25.651 3.163219 1.838768
8404.27 30.0079 3.066475 6.203585
8406.21 22.2338 1.463486 -1.570515
8408.14 25.1608 0.981619 1.357405
8410.08 24.4825 0.952658 0.679104
8412.01 23.9801 0.953467 0.176704
8413.95 24.868 0.987393 1.064604
8415.89 24.6084 1.129185 0.798271
8417.83 23.3738 1.517592 -0.436329
8419.77 26.458 1.692026 2.649075
8421.7 23.1949 1.319158 -0.614025
8423.64 23.6659 1.101027 -0.140552
8425.58 26.0065 1.034013 2.200048
8427.52 25.9287 1.003488 2.129021
8429.46 24.8773 1.037665 1.077621
8431.41 19.1166 1.398206 -4.692003
8433.35 23.7734 2.429777 -0.035204
8435.29 25.376 2.393077 1.571949
8437.23 22.6086 1.342295 -1.19545
8439.18 21.6133 0.977984 -2.19075
8441.12 22.9557 0.915472 -0.846205
8443.06 21.7976 0.91002 -2.004305
8445.01 23.1974 0.91901 -0.604506
8446.95 24.9684 0.942671 1.171968
8448.9 24.9004 0.962393 1.10397
8450.84 23.8019 0.97916 0.00547
8452.79 23.4735 1.040925 -0.313314
8454.74 21.9239 1.312923 -1.862913
8456.68 25.7112 1.446149 1.924387
8458.63 24.5376 1.197179 0.754311
8460.58 23.9137 1.025046 0.140034
8462.53 25.9155 0.962353 2.141834
8464.47 21.7439 0.932558 -2.029766
8466.42 23.4404 1.347606 -0.3281
8468.37 26.6343 2.348926 2.870094
8470.32 25.6867 2.319674 1.927595
8472.27 24.3194 1.477613 0.564697
8474.23 25.2016 1.052292 1.443192
8476.18 24.6661 0.98974 0.907692
8478.13 23.7986 0.99555 0.040192
8480.08 24.6684 1.255254 0.919544
8482.03 25.8683 1.212996 2.124718
8483.99 25.8228 0.949265 2.083597
8485.94 24.7269 0.942457 0.992847
8487.9 24.3615 0.926896 0.636946
8489.85 25.0613 0.937647 1.346382
8491.8 23.97 0.936849 0.264675
8493.76 20.8952 0.933329 -2.800417
8495.72 22.3458 1.144583 -1.340048
8497.67 27.1987 1.43787 3.522703
8499.63 25.3198 1.268861 1.643803
8501.59 23.2389 0.980689 -0.427198
8503.54 24.8163 0.98577 1.150202
8505.5 24.1069 1.18807 0.440802
8507.46 25.0634 1.652353 1.392399
8509.42 27.6257 1.759636 3.963787
8511.38 24.2659 1.371941 0.603987
8513.34 25.443 1.097624 1.791615
8515.3 23.6388 0.994235 -0.005245
8517.26 23.4326 0.986004 -0.203655
8519.22 24.7139 1.01475 1.085209
8521.19 25.2714 1.061393 1.638283
8523.15 25.0091 1.054254 1.375982
8525.11 22.61 0.97678 -1.016571
8527.07 24.5279 0.958187 0.889553
8529.04 24.6783 0.94798 1.03344
8531.0 23.9845 0.957326 0.337454
8532.97 24.3694 0.980666 0.721209
8534.93 23.5121 0.977083 -0.130699
8536.9 24.0654 0.974764 0.429451
8538.86 24.7132 0.993332 1.082609
8540.83 23.2122 1.062628 -0.412911
8542.8 23.028 1.199424 -0.597111
8544.76 23.8333 1.130187 0.220921
8546.73 20.9407 0.95758 -2.658583
8548.7 23.0603 0.963558 -0.525881
8550.67 22.6547 1.076441 -0.918381
8552.64 24.9665 1.282595 1.397333
8554.61 25.7794 1.231953 2.210234
8556.58 22.8447 1.021214 -0.711798
8558.55 23.2131 0.964544 -0.330681
8560.52 24.6672 0.963585 1.135462
8562.49 23.4493 0.961063 -0.070312
8564.46 23.2043 0.940417 -0.315313
8566.43 22.8481 0.943115 -0.671513
8568.41 22.2241 0.940434 -1.282904
8570.38 24.2937 0.97011 0.793316
8572.35 23.8259 0.954561 0.312988
8574.33 24.3193 0.947946 0.80752
8576.3 24.0397 0.953038 0.531528
8578.28 22.6791 0.940056 -0.82258
8580.25 22.8498 0.94519 -0.639799
8582.23 25.5389 0.972254 2.049301
8584.2 22.8574 0.937034 -0.637876
8586.18 22.984 0.931626 -0.5056
8588.16 22.5383 0.954983 -0.9513
8590.14 22.8904 0.982017 -0.593428
8592.11 24.495 1.061653 1.011173
8594.09 23.3072 1.044319 -0.167126
8596.07 23.3923 0.985439 -0.076021
8598.05 24.0816 1.008055 0.608267
8600.03 24.3135 1.092718 0.836487
8602.01 23.2161 1.106981 -0.262173
8603.99 21.8285 0.989852 -1.655863
8605.97 22.5641 0.99022 -0.914173
8607.96 24.0089 1.002964 0.538038
8609.94 24.575 1.043126 1.116463
8611.92 23.9635 1.010235 0.517427
8613.9 22.7904 1.012434 -0.655672
8615.89 22.1891 1.031464 -1.245251
8617.87 22.8675 1.108572 -0.560451
8619.86 23.28 1.174054 -0.147287
8621.84 22.6671 1.195958 -0.755804
8623.83 23.1575 1.227909 -0.265406
8625.81 23.5539 1.344333 0.144169
8627.8 22.3076 1.377511 -1.089535
8629.79 20.8376 1.379174 -2.54826
8631.77 21.2409 1.542098 -2.138687
8633.76 20.7131 1.594055 -2.652197
8635.75 21.9746 1.531514 -1.380112
8637.74 22.4152 1.474981 -0.925096
8639.73 22.1517 1.387482 -1.201548
8641.72 25.2903 1.314452 1.944427
8643.71 22.4633 1.253764 -0.878719
8645.7 24.5001 1.26 1.15077
8647.69 24.7616 1.128154 1.398273
8649.68 23.4199 1.097084 0.050991
8651.67 23.5008 1.232223 0.139223
8653.66 23.6806 1.370827 0.325323
8655.66 24.2991 1.385823 0.951025
8657.65 23.1233 1.54383 -0.231976
8659.64 23.82 1.523371 0.471924
8661.64 23.6081 1.422675 0.261234
8663.63 22.0483 1.684947 -1.289602
8665.63 24.281 1.436911 0.956793
8667.62 23.8758 1.397643 0.564886
8669.62 22.5125 1.435499 -0.806326
8671.62 20.782 1.359694 -2.536827
8673.61 21.4571 1.431813 -1.861727
8675.61 23.9074 1.367747 0.588573
8677.61 23.4508 1.248545 0.144493
8679.61 24.0508 1.293485 0.731707
8681.6 24.7153 1.307115 1.396206
8683.6 23.9811 1.20458 0.675037
8685.6 23.3386 1.307685 0.045578
8687.6 23.7259 1.210109 0.432878
8689.6 24.1677 1.168362 0.888195
8691.61 26.1381 1.186447 2.854298
8693.61 21.9223 1.090079 -1.361502
8695.61 23.1496 1.071183 -0.12023
8697.61 24.6918 1.12661 1.415581
8699.61 22.5189 1.069223 -0.757319
8701.62 25.2906 1.086532 2.010572
8703.62 23.6881 1.100115 0.400696
8705.63 24.2494 1.089504 0.975714
8707.63 21.9648 1.054811 -1.294857
8709.64 21.8964 1.120877 -1.353537
8711.64 24.7205 1.141457 1.484661
8713.65 21.242 1.063812 -1.979816
8715.65 23.0817 1.006995 -0.13085
8717.66 22.4021 1.004727 -0.796797
8719.67 22.995 1.028075 -0.203638
8721.68 24.0748 1.05392 0.884071
8723.69 23.2659 1.052686 0.087973
8725.69 22.9091 1.08031 -0.268827
8727.7 25.4984 1.133704 2.320473
8729.71 22.9864 1.045236 -0.197603
8731.72 22.208 1.034084 -0.978901
8733.73 23.0031 1.025622 -0.17778
8735.75 22.3196 1.01848 -0.867302
8737.76 21.6395 0.990769 -1.560066
8739.77 21.5441 0.999585 -1.666756
8741.78 20.7341 0.979066 -2.476755
8743.8 18.7922 0.990599 -4.412474
8745.81 18.5791 0.97119 -4.612358
8747.82 21.2788 1.018609 -1.912659
8749.84 23.121 1.056171 -0.070457
8751.85 21.3112 1.049955 -1.868887
8753.87 22.4182 1.101733 -0.761887
8755.88 22.6903 1.087911 -0.481657
8757.9 21.9698 1.096114 -1.202156
8759.92 21.5524 1.153647 -1.607422
8761.93 20.088 1.522267 -3.071823
8763.95 18.9966 2.159082 -4.175358
8765.97 25.5822 2.1407 2.408178
8767.99 21.5238 1.942019 -1.657413
8770.01 15.6678 3.032322 -7.519469
8772.03 20.3272 3.269596 -2.846821
8774.05 25.2617 2.264542 2.100573
8776.07 22.9862 1.487172 -0.161802
8778.09 21.2284 1.565336 -1.919603
8780.11 20.6267 2.264885 -2.519651
8782.13 22.3784 2.957312 -0.755133
8784.16 23.0519 2.629522 -0.068357
8786.18 16.4679 1.416493 -6.639507
8788.2 15.5175 1.016274 -7.589907
8790.23 16.1781 0.960349 -6.929306
8792.25 16.6768 1.107304 -6.430607
8794.27 18.662 1.620803 -4.458258
8796.3 21.1831 1.843848 -1.950434
8798.32 20.543 1.326533 -2.590534
8800.35 22.0268 1.141379 -1.097626
8802.38 21.9998 1.06957 -1.128948
8804.4 24.0267 1.127812 0.902147
8806.43 24.6173 1.120058 1.505552
8808.46 22.682 1.115295 -0.416924
8810.49 24.2859 1.116309 1.197302
8812.52 23.1076 1.114877 0.019001
8814.55 23.41 1.15206 0.322887
8816.58 22.0302 1.093249 -1.044106
8818.61 21.6585 1.141594 -1.402719
8820.64 23.5768 1.171745 0.515579
8822.67 22.7057 1.107185 -0.342686
8824.7 22.593 1.080974 -0.443361
8826.73 25.3851 1.324035 2.342552
8828.77 18.5281 2.433486 -4.514448
8830.8 17.6549 4.518582 -5.387648
8832.83 28.1085 3.607272 5.065952
8834.87 24.4172 2.219074 1.374653
8836.9 20.1812 1.643124 -2.849409
8838.94 20.1139 1.807615 -2.91671
8840.97 23.1161 2.632016 0.085491
8843.01 24.172 1.974746 1.151085
8845.04 22.5241 1.191293 -0.490305
8847.08 23.1893 1.123655 0.174896
8849.12 22.2376 1.159032 -0.788961
8851.16 20.4265 1.23975 -2.592964
8853.19 23.69 1.450725 0.668234
8855.23 25.8438 1.527017 2.822033
8857.27 22.864 1.188382 -0.145607
8859.31 22.3059 1.093638 -0.712687
8861.35 21.6119 1.118822 -1.409056
8863.39 21.56 1.126693 -1.460957
8865.43 23.9126 1.213727 0.903938
8867.48 24.2989 1.235394 1.300253
8869.52 22.58 1.609032 -0.414904
8871.56 25.5193 2.388145 2.517591
8873.6 24.6842 2.120263 1.682491
8875.65 23.7649 1.307763 0.771534
8877.69 23.2745 1.119105 0.293787
8879.73 23.0722 1.079378 0.102524
8881.78 22.6866 1.132112 -0.289972
8883.83 22.2539 1.328499 -0.724182
8885.87 25.0224 1.510223 2.050356
8887.92 17.2959 2.847351 -5.678267
8889.96 20.7102 5.702511 -2.262968
8892.01 25.8124 3.895033 2.832193
8894.06 21.5638 1.750074 -1.417507
8896.11 23.2792 1.248491 0.304501
8898.16 22.7769 1.199418 -0.191526
8900.2 23.744 1.200242 0.782528
8902.25 24.7318 1.205257 1.776909
8904.3 23.1927 1.374337 0.244518
8906.35 21.2289 2.407082 -1.714226
8908.41 22.6218 2.65141 -0.32807
8910.46 17.3277 1.515098 -5.628967
8912.51 15.4972 1.161834 -7.445927
8914.56 16.8249 1.089713 -6.111748
8916.61 18.7817 1.068768 -4.14822
8918.67 21.1913 1.248123 -1.741304
8920.72 21.8415 1.804325 -1.098017
8922.78 9.50323 3.053183 -13.4373
8924.83 22.6494 5.58729 -0.284477
8926.89 27.7458 3.095931 4.806849
8928.94 22.5109 1.473222 -0.423765
8931.0 21.7619 1.215534 -1.165257
8933.05 21.3076 1.155325 -1.627066
8935.11 22.112 1.165563 -0.830269
8937.17 20.9671 1.176642 -1.982929
8939.23 20.1796 1.197644 -2.777832
8941.29 22.3305 1.246991 -0.634377
8943.35 23.6858 1.246687 0.713449
8945.4 18.932 1.522088 -4.048096
8947.46 23.1378 2.221789 0.165449
8949.53 24.1008 2.4452 1.120705
8951.59 23.8383 1.511716 0.865675
8953.65 23.3102 1.12295 0.345324
8955.71 22.7466 1.121536 -0.210501
8957.77 23.015 1.338375 0.065338
8959.83 16.8295 2.202371 -6.112652
8961.9 27.1305 4.012481 4.19552
8963.96 29.2946 3.624378 6.363768
8966.03 22.4563 1.926925 -0.467119
8968.09 20.4568 1.430915 -2.458935
8970.16 22.9311 1.213267 0.007681
8972.22 22.193 1.134383 -0.722786
8974.29 23.4767 1.190753 0.568598
8976.35 23.9499 1.305791 1.034113
8978.42 24.1016 1.281955 1.178181
8980.49 24.5934 1.21505 1.662512
8982.56 23.0277 1.133419 0.10445
8984.63 23.6768 1.230237 0.761013
8986.69 24.1584 1.229594 1.250391
8988.76 20.4568 1.292528 -2.443523
8990.83 20.3386 1.738965 -2.554047
8992.9 24.4282 2.29516 1.542374
8994.98 20.3047 1.962256 -2.573088
8997.05 24.4678 1.549042 1.597092
8999.12 24.7221 1.372818 1.859209
9001.19 20.9202 1.270105 -1.950508
9003.26 22.0831 1.66808 -0.781122
9005.34 27.2451 3.6106 4.388723
9007.41 23.4819 3.145556 0.617678
9009.49 24.5265 1.749461 1.670307
9011.56 22.5062 1.371915 -0.342449
9013.64 22.6699 1.149918 -0.171759
9015.71 23.1422 1.118247 0.29355
9017.79 21.5307 1.08637 -1.325989
9019.86 22.6008 1.130961 -0.24785
9021.94 21.9675 1.16259 -0.889189
9024.02 21.6604 1.097553 -1.1908
9026.1 23.1806 1.136433 0.321556
9028.18 23.1417 1.178917 0.285973
9030.25 22.0986 1.231235 -0.748919
9032.33 26.0236 1.249695 3.184204
9034.41 24.9555 1.253608 2.117847
9036.49 25.1931 1.206626 2.363459
9038.58 23.3434 1.229155 0.517675
9040.66 22.4183 1.343449 -0.416079
9042.74 24.8514 1.488136 2.02124
9044.82 24.9246 1.356283 2.08621
9046.9 23.8802 1.263182 1.033037
9048.99 22.5929 1.256913 -0.262886
9051.07 20.0662 1.307471 -2.798008
9053.16 22.0625 1.733196 -0.810427
9055.24 27.6104 1.808386 4.729095
9057.33 24.343 1.466105 1.452347
9059.41 21.4543 1.29889 -1.430292
9061.5 20.9062 1.198178 -1.988388
9063.58 23.1067 1.217289 0.203833
9065.67 23.687 1.169719 0.778387
9067.76 22.3634 1.194795 -0.554966
9069.85 25.3556 1.302794 2.428432
9071.94 24.5335 1.364523 1.596252
9074.03 25.3907 1.39116 2.453451
9076.12 25.7566 1.358713 2.819351
9078.21 24.2881 1.246223 1.350851
9080.3 22.239 1.145409 -0.698248
9082.39 21.4115 1.137927 -1.525747
9084.48 22.4158 1.219099 -0.511368
9086.57 23.6967 1.29569 0.77117
9088.66 23.41 1.242524 0.474075
9090.76 22.6422 1.255864 -0.293724
9092.85 22.5926 1.181284 -0.343325
9094.94 22.7439 1.2727 -0.192024
9097.04 25.1239 1.572636 2.178446
9099.13 24.1238 1.652942 1.167736
9101.23 23.7724 1.530945 0.806252
9103.32 23.7618 1.576282 0.785214
9105.42 23.5935 1.781668 0.606724
9107.52 26.0346 1.855163 3.037979
9109.61 22.9757 1.664338 -0.031353
9111.71 24.3524 1.401622 1.335247
9113.81 23.2459 1.313532 0.218531
9115.91 21.26 1.172377 -1.757153
9118.01 22.5092 1.153594 -0.497511
9120.11 22.8647 1.161269 -0.15164
9122.21 23.5283 1.264424 0.522425
9124.31 23.3381 1.209869 0.335312
9126.41 21.7552 1.172161 -1.236984
9128.51 22.0788 1.160215 -0.923988
9130.61 23.6876 1.218268 0.673944
9132.72 20.6771 1.219184 -2.325689
9134.82 22.1375 1.297163 -0.874573
9136.92 23.0222 1.241645 -0.000786
9139.03 24.565 1.336903 1.552927
9141.13 25.2565 1.373344 2.244427
9143.24 24.1089 1.292418 1.096827
9145.34 24.136 1.238777 1.123926
9147.45 22.3476 1.210124 -0.664473
9149.56 23.6145 1.236918 0.602426
9151.66 23.5757 1.266335 0.563627
9153.77 21.1717 1.299105 -1.840374
9155.88 21.0944 1.476449 -1.906466
9157.99 26.159 1.649563 3.146927
9160.1 23.7083 1.574188 0.701942
9162.2 20.318 1.378234 -2.699789
9164.31 22.7965 1.431261 -0.233042
9166.43 24.7177 1.404828 1.699909
9168.54 22.6535 1.256701 -0.352858
9170.65 25.5345 1.246355 2.523397
9172.76 23.8846 1.240343 0.861849
9174.87 23.4026 1.243334 0.367538
9176.98 21.5755 1.242555 -1.471416
9179.1 19.8173 1.292261 -3.21776
9181.21 20.9894 1.279979 -2.034035
9183.33 23.0165 1.263722 -0.01856
9185.44 23.3722 1.247226 0.337139
9187.56 22.8798 1.281606 -0.143635
9189.67 22.5546 1.276967 -0.456503
9191.79 22.7032 1.254125 -0.29882
9193.9 23.0582 1.25994 0.058685
9196.02 23.0585 0.0 0.047665
9198.14 23.0588 0.0 0.0348
9200.26 23.0591 0.0 0.048264
9202.38 23.0594 0.0 0.0354
9204.5 23.0598 0.0 0.035799
9206.62 23.0601 0.0 0.0361
9208.74 23.0604 0.0 0.022678
9210.86 23.0607 0.0 0.032291
9212.98 23.0611 0.0 0.023378
9215.1 23.0614 0.0 0.037804
9217.22 23.0617 0.0 0.052141
9219.34 23.062 0.0 0.059481
9221.47 23.0623 0.0 0.05978
9223.59 23.0627 0.0 0.060181
